pos,corr_resp,block.thisRepN,block.thisTrialN,block.thisN,block.thisIndex,trials.thisRepN,trials.thisTrialN,trials.thisN,trials.thisIndex,trials_2.thisRepN,trials_2.thisTrialN,trials_2.thisN,trials_2.thisIndex,Fixation.started,line1.started,line2.started,line3.started,line4.started,Fixation.stopped,probe.started,key_resp.started,key_resp.keys,key_resp.corr,key_resp.rt,key_resp.duration,probe.stopped,participant,session,date,expName,psychopyVersion,frameRate,,sequential rt,random rt,,,,
-50,x,0,0,0,0,0,0,0,0,,,,,12.2110622,13.1911878,13.1911878,13.1911878,13.1911878,13.2242193,14.1908585,14.1908585,x,1,0.6449632,None,,sushreesanjana,1,2023-10-16_14h51.24.232,sequential learning,2023.1.3,59.95153518,,0.265917,0.6449632,,,,
-150,z,0,0,0,0,0,1,1,3,,,,,14.8576659,15.8570862,15.8570862,15.8570862,15.8570862,15.8570862,16.8574161,16.8574161,z,1,0.5082279,None,,sushreesanjana,1,2023-10-16_14h51.24.232,sequential learning,2023.1.3,59.95153518,,0.4424281,0.5082279,,,,
50,c,0,0,0,0,0,2,2,2,,,,,17.3904569,18.3899606,18.3899606,18.3899606,18.3899606,18.3899606,19.390139,19.390139,c,1,0.552055,None,,sushreesanjana,1,2023-10-16_14h51.24.232,sequential learning,2023.1.3,59.95153518,,0.5354029,0.552055,,,,
50,c,0,0,0,0,0,3,3,2,,,,,19.9737696,20.9734697,20.9734697,20.9734697,20.9734697,20.9734697,21.9733789,21.9733789,c,1,0.4669075,None,,sushreesanjana,1,2023-10-16_14h51.24.232,sequential learning,2023.1.3,59.95153518,,0.2918907,0.4669075,,sequential rt,0.329092032,diffe rts
50,c,0,0,0,0,1,0,4,2,,,,,22.4730036,23.4728714,23.4728714,23.4728714,23.4728714,23.4728714,24.4727604,24.4727604,c,1,0.3741631,None,,sushreesanjana,1,2023-10-16_14h51.24.232,sequential learning,2023.1.3,59.95153518,,0.2610721,0.3741631,,random rt,0.447461755,-0.118369723
-50,x,0,0,0,0,1,1,5,0,,,,,24.8725509,25.8562467,25.8562467,25.8562467,25.8562467,25.8730012,26.8726602,26.8726602,x,1,0.3943276,None,,sushreesanjana,1,2023-10-16_14h51.24.232,sequential learning,2023.1.3,59.95153518,,0.2413126,0.3943276,,,,
150,v,0,0,0,0,1,2,6,1,,,,,27.2891302,28.2892491,28.2892491,28.2892491,28.2892491,28.2892491,29.2887299,29.2887299,v,1,0.411316,None,,sushreesanjana,1,2023-10-16_14h51.24.232,sequential learning,2023.1.3,59.95153518,,0.2866665,0.411316,,,,
150,v,0,0,0,0,1,3,7,1,,,,,29.7222673,30.7225457,30.7225457,30.7225457,30.7225457,30.7225457,31.7221688,31.7221688,v,1,0.3627233,None,,sushreesanjana,1,2023-10-16_14h51.24.232,sequential learning,2023.1.3,59.95153518,,0.294123,0.3627233,,,seqRT,ranRT
150,v,0,0,0,0,2,0,8,1,,,,,32.1052882,33.1052317,33.1052317,33.1052317,33.1052317,33.1052317,34.1049445,34.1049445,v,1,0.3796559,None,,sushreesanjana,1,2023-10-16_14h51.24.232,sequential learning,2023.1.3,59.95153518,,0.3024086,0.3796559,,bin ,,
-150,z,0,0,0,0,2,1,9,3,,,,,34.5048392,35.5048397,35.5048397,35.5048397,35.5048397,35.5048397,36.5045905,36.5045905,z,1,0.3766378,None,,sushreesanjana,1,2023-10-16_14h51.24.232,sequential learning,2023.1.3,59.95153518,,0.2505342,0.3766378,,1,0.329035884,0.457128249
50,c,0,0,0,0,2,2,10,2,,,,,36.9046653,37.9042321,37.9042321,37.9042321,37.9042321,37.9042321,38.9041858,38.9041858,c,1,0.4550644,None,,sushreesanjana,1,2023-10-16_14h51.24.232,sequential learning,2023.1.3,59.95153518,,0.2838181,0.4550644,,2,0.402158064,0.427216912
50,c,0,0,0,0,2,3,11,2,,,,,39.3875473,40.3875861,40.3875861,40.3875861,40.3875861,40.3875861,41.3875091,41.3875091,c,1,0.4383405,None,,sushreesanjana,1,2023-10-16_14h51.24.232,sequential learning,2023.1.3,59.95153518,,0.2893744,0.4383405,,3,0.283120112,0.432768488
150,v,0,0,0,0,3,0,12,1,,,,,41.8540857,42.8539864,42.8539864,42.8539864,42.8539864,42.8539864,43.8538145,43.8538145,v,1,0.3463682,None,,sushreesanjana,1,2023-10-16_14h51.24.232,sequential learning,2023.1.3,59.95153518,,0.5826199,0.3463682,,4,0.296247577,0.47398774
-50,x,0,0,0,0,3,1,13,0,,,,,44.2201275,45.2203538,45.2203538,45.2203538,45.2203538,45.2203538,46.2200657,46.2200657,x,1,0.466675,None,,sushreesanjana,1,2023-10-16_14h51.24.232,sequential learning,2023.1.3,59.95153518,,0.2863591,0.466675,,,,
-50,x,0,0,0,0,3,2,14,0,,,,,46.7199148,47.7034149,47.7034149,47.7034149,47.7034149,47.7200717,48.7200127,48.7200127,x,1,0.4708053,None,,sushreesanjana,1,2023-10-16_14h51.24.232,sequential learning,2023.1.3,59.95153518,,0.2470604,0.4708053,,,,
-50,x,0,0,0,0,3,3,15,0,,,,,49.2201802,50.2197466,50.2197466,50.2197466,50.2197466,50.2197466,51.219682,51.219682,x,1,0.3154672,None,,sushreesanjana,1,2023-10-16_14h51.24.232,sequential learning,2023.1.3,59.95153518,,0.2536655,0.3154672,,,,
-150,z,0,0,0,0,4,1,17,3,,,,,53.9360502,54.9356044,54.9356044,54.9356044,54.9356044,54.9356044,55.9355562,55.9355562,z,1,0.3648266,None,,sushreesanjana,1,2023-10-16_14h51.24.232,sequential learning,2023.1.3,59.95153518,,0.1423971,0.3648266,,,,
-50,x,0,0,0,0,4,2,18,0,,,,,56.3186647,57.3185981,57.3185981,57.3185981,57.3185981,57.3185981,58.3184594,58.3184594,x,1,0.3780078,None,,sushreesanjana,1,2023-10-16_14h51.24.232,sequential learning,2023.1.3,59.95153518,,0.3123334,0.3780078,,,,
50,c,0,0,0,0,4,3,19,2,,,,,58.7182179,59.7181347,59.7181347,59.7181347,59.7181347,59.7181347,60.7183688,60.7183688,c,1,0.482779,None,,sushreesanjana,1,2023-10-16_14h51.24.232,sequential learning,2023.1.3,59.95153518,,0.2377902,0.482779,,,,
-150,z,0,0,0,0,5,0,20,3,,,,,61.2184986,62.2178895,62.2178895,62.2178895,62.2178895,62.2178895,63.2178996,63.2178996,z,1,0.3925571,None,,sushreesanjana,1,2023-10-16_14h51.24.232,sequential learning,2023.1.3,59.95153518,,0.2865102,0.3925571,,,,
-50,x,0,0,0,0,5,1,21,0,,,,,63.6344202,64.6344529,64.6344529,64.6344529,64.6344529,64.6344529,65.6339717,65.6339717,x,1,0.3971202,None,,sushreesanjana,1,2023-10-16_14h51.24.232,sequential learning,2023.1.3,59.95153518,,0.2793563,0.3971202,,,,
-150,z,0,0,0,0,5,2,22,3,,,,,66.0507139,67.050824,67.050824,67.050824,67.050824,67.050824,68.0507917,68.0507917,z,1,0.4468962,None,,sushreesanjana,1,2023-10-16_14h51.24.232,sequential learning,2023.1.3,59.95153518,,0.401589,0.4468962,,,,
-150,z,0,0,0,0,5,3,23,3,,,,,68.5171797,69.5173538,69.5173538,69.5173538,69.5173538,69.5173538,70.516916,70.516916,z,1,0.4016627,None,,sushreesanjana,1,2023-10-16_14h51.24.232,sequential learning,2023.1.3,59.95153518,,0.2559497,0.4016627,,,,
-150,z,0,0,0,0,6,0,24,3,,,,,70.9504527,71.9502549,71.9502549,71.9502549,71.9502549,71.9502549,72.9498063,72.9498063,z,1,0.4115533,None,,sushreesanjana,1,2023-10-16_14h51.24.232,sequential learning,2023.1.3,59.95153518,,0.3394705,0.4115533,,,,
-150,z,0,0,0,0,6,1,25,3,,,,,73.3828404,74.3831319,74.3831319,74.3831319,74.3831319,74.3831319,75.3827194,75.3827194,z,1,0.3856013,None,,sushreesanjana,1,2023-10-16_14h51.24.232,sequential learning,2023.1.3,59.95153518,,0.3216575,0.3856013,,,,
-150,z,0,0,0,0,6,2,26,3,,,,,75.7996547,76.7991675,76.7991675,76.7991675,76.7991675,76.7991675,77.799066,77.799066,z,1,0.3312617,None,,sushreesanjana,1,2023-10-16_14h51.24.232,sequential learning,2023.1.3,59.95153518,,0.3475908,0.3312617,,,,
150,v,0,0,0,0,6,3,27,1,,,,,78.1493626,79.1493909,79.1493909,79.1493909,79.1493909,79.1493909,80.1491898,80.1491898,v,1,0.5392308,None,,sushreesanjana,1,2023-10-16_14h51.24.232,sequential learning,2023.1.3,59.95153518,,0.243517,0.5392308,,,,
-150,z,0,0,0,0,7,0,28,3,,,,,80.7156045,81.7155708,81.7155708,81.7155708,81.7155708,81.7155708,82.7150275,82.7150275,z,1,0.458269,None,,sushreesanjana,1,2023-10-16_14h51.24.232,sequential learning,2023.1.3,59.95153518,,0.2858087,0.458269,,,,
150,v,0,0,0,0,7,1,29,1,,,,,83.1984956,84.1986781,84.1986781,84.1986781,84.1986781,84.1986781,85.1983814,85.1983814,v,1,0.4079708,None,,sushreesanjana,1,2023-10-16_14h51.24.232,sequential learning,2023.1.3,59.95153518,,0.3162461,0.4079708,,,,
-50,x,0,0,0,0,7,2,30,0,,,,,85.631497,86.6318041,86.6318041,86.6318041,86.6318041,86.6318041,87.6315289,87.6315289,x,1,0.6432373,None,,sushreesanjana,1,2023-10-16_14h51.24.232,sequential learning,2023.1.3,59.95153518,,0.0515761,0.6432373,,,,
-150,z,0,0,0,0,7,3,31,3,,,,,88.2979718,89.2980744,89.2980744,89.2980744,89.2980744,89.2980744,90.2980502,90.2980502,z,1,0.4162002,None,,sushreesanjana,1,2023-10-16_14h51.24.232,sequential learning,2023.1.3,59.95153518,,0.2829742,0.4162002,,,,
-50,x,0,0,0,0,8,0,32,0,,,,,90.7310515,91.7306921,91.7306921,91.7306921,91.7306921,91.7306921,92.7307494,92.7307494,x,1,0.4929874,None,,sushreesanjana,1,2023-10-16_14h51.24.232,sequential learning,2023.1.3,59.95153518,,0.809671,0.4929874,,,,
-50,x,0,0,0,0,8,1,33,0,,,,,93.2471571,94.2470285,94.2470285,94.2470285,94.2470285,94.2470285,95.2470152,95.2470152,x,1,0.3678063,None,,sushreesanjana,1,2023-10-16_14h51.24.232,sequential learning,2023.1.3,59.95153518,,0.2626772,0.3678063,,,,
150,v,0,0,0,0,8,2,34,1,,,,,95.6472197,96.6472237,96.6472237,96.6472237,96.6472237,96.6472237,97.6467474,97.6467474,v,1,0.4956365,None,,sushreesanjana,1,2023-10-16_14h51.24.232,sequential learning,2023.1.3,59.95153518,,0.3084273,0.4956365,,,,
50,c,0,0,0,0,8,3,35,2,,,,,98.1633105,99.1635114,99.1635114,99.1635114,99.1635114,99.1635114,100.1629464,100.1629464,c,1,0.5264947,None,,sushreesanjana,1,2023-10-16_14h51.24.232,sequential learning,2023.1.3,59.95153518,,0.1053045,0.5264947,,,,
50,c,0,0,0,0,9,0,36,2,,,,,100.7127803,101.7130952,101.7130952,101.7130952,101.7130952,101.7130952,102.7127624,102.7127624,c,1,0.5796299,None,,sushreesanjana,1,2023-10-16_14h51.24.232,sequential learning,2023.1.3,59.95153518,,0.2442012,0.5796299,,,,
-50,x,0,0,0,0,9,1,37,0,,,,,103.3125115,104.3124549,104.3124549,104.3124549,104.3124549,104.3124549,105.3122039,105.3122039,x,1,0.6458091,None,,sushreesanjana,1,2023-10-16_14h51.24.232,sequential learning,2023.1.3,59.95153518,,0.2093998,0.6458091,,,,
50,c,0,0,0,0,9,2,38,2,,,,,105.9789182,106.9787556,106.9787556,106.9787556,106.9787556,106.9787556,107.9788431,107.9788431,c,1,0.5028311,None,,sushreesanjana,1,2023-10-16_14h51.24.232,sequential learning,2023.1.3,59.95153518,,0.3299132,0.5028311,,,,
50,c,0,0,0,0,9,3,39,2,,,,,108.5119665,109.5121887,109.5121887,109.5121887,109.5121887,109.5121887,110.5117143,110.5117143,c,1,0.3845274,None,,sushreesanjana,1,2023-10-16_14h51.24.232,sequential learning,2023.1.3,59.95153518,,0.3269554,0.3845274,,,,
-50,x,0,0,0,0,10,0,40,0,,,,,110.9281871,111.9283576,111.9283576,111.9283576,111.9283576,111.9283576,112.9283952,112.9283952,x,1,0.3422532,None,,sushreesanjana,1,2023-10-16_14h51.24.232,sequential learning,2023.1.3,59.95153518,,1.0811995,0.3422532,,,,
150,v,0,0,0,0,10,1,41,1,,,,,113.2946398,114.2945348,114.2945348,114.2945348,114.2945348,114.2945348,115.2946228,115.2946228,v,1,0.5488973,None,,sushreesanjana,1,2023-10-16_14h51.24.232,sequential learning,2023.1.3,59.95153518,,0.4054157,0.5488973,,,,
-150,z,0,0,0,0,10,2,42,3,,,,,115.8613384,116.8611289,116.8611289,116.8611289,116.8611289,116.8611289,117.8606292,117.8606292,z,1,0.505966,None,,sushreesanjana,1,2023-10-16_14h51.24.232,sequential learning,2023.1.3,59.95153518,,0.4170643,0.505966,,,,
150,v,0,0,0,0,10,3,43,1,,,,,118.3940267,119.3943044,119.3943044,119.3943044,119.3943044,119.3943044,120.3939897,120.3939897,v,1,0.5336206,None,,sushreesanjana,1,2023-10-16_14h51.24.232,sequential learning,2023.1.3,59.95153518,,0.3051278,0.5336206,,,,
150,v,0,0,0,0,11,0,44,1,,,,,120.9439714,121.9437374,121.9437374,121.9437374,121.9437374,121.9437374,122.9436925,122.9436925,v,1,0.4996877,None,,sushreesanjana,1,2023-10-16_14h51.24.232,sequential learning,2023.1.3,59.95153518,,0.3869283,0.4996877,,,,
150,v,0,0,0,0,11,1,45,1,,,,,123.4602525,124.4600584,124.4600584,124.4600584,124.4600584,124.4600584,125.4599934,125.4599934,v,1,0.4789946,None,,sushreesanjana,1,2023-10-16_14h51.24.232,sequential learning,2023.1.3,59.95153518,,0.3286621,0.4789946,,,,
50,c,0,0,0,0,11,2,46,2,,,,,125.9595864,126.9431528,126.9431528,126.9431528,126.9431528,126.9596833,127.9591894,127.9591894,c,1,0.7630994,None,,sushreesanjana,1,2023-10-16_14h51.24.232,sequential learning,2023.1.3,59.95153518,,0.3138693,0.7630994,,,,
50,c,0,0,0,0,11,3,47,2,,,,,128.7428106,129.7429784,129.7429784,129.7429784,129.7429784,129.7429784,130.7425729,130.7425729,c,1,0.4515024,None,,sushreesanjana,1,2023-10-16_14h51.24.232,sequential learning,2023.1.3,59.95153518,,0.2351182,0.4515024,,,,
-150,z,0,0,0,0,12,0,48,3,,,,,131.2258722,132.2257313,132.2257313,132.2257313,132.2257313,132.2257313,133.2256629,133.2256629,z,1,0.3774355,None,,sushreesanjana,1,2023-10-16_14h51.24.232,sequential learning,2023.1.3,59.95153518,,0.3903669,0.3774355,,,,
50,c,0,0,0,0,12,1,49,2,,,,,133.6251908,134.6252663,134.6252663,134.6252663,134.6252663,134.6252663,135.6250034,135.6250034,c,1,0.4812332,None,,sushreesanjana,1,2023-10-16_14h51.24.232,sequential learning,2023.1.3,59.95153518,,0.4430367,0.4812332,,,,
150,v,0,0,0,0,12,2,50,1,,,,,136.1249628,137.125019,137.125019,137.125019,137.125019,137.125019,138.1246069,138.1246069,v,1,0.3651352,None,,sushreesanjana,1,2023-10-16_14h51.24.232,sequential learning,2023.1.3,59.95153518,,0.2823733,0.3651352,,,,
150,v,0,0,0,0,12,3,51,1,,,,,138.5082847,139.5076961,139.5076961,139.5076961,139.5076961,139.5076961,140.5080084,140.5080084,v,1,0.3617641,None,,sushreesanjana,1,2023-10-16_14h51.24.232,sequential learning,2023.1.3,59.95153518,,0.2856039,0.3617641,,,,
150,v,0,0,0,0,13,0,52,1,,,,,140.8912123,141.891168,141.891168,141.891168,141.891168,141.891168,142.8909617,142.8909617,v,1,0.3531771,None,,sushreesanjana,1,2023-10-16_14h51.24.232,sequential learning,2023.1.3,59.95153518,,0.3917058,0.3531771,,,,
50,c,0,0,0,0,13,1,53,2,,,,,143.274234,144.2740412,144.2740412,144.2740412,144.2740412,144.2740412,145.2740422,145.2740422,c,1,0.4856442,None,,sushreesanjana,1,2023-10-16_14h51.24.232,sequential learning,2023.1.3,59.95153518,,0.2990191,0.4856442,,,,
-150,z,0,0,0,0,13,2,54,3,,,,,145.7905279,146.7904738,146.7904738,146.7904738,146.7904738,146.7904738,147.7904346,147.7904346,z,1,0.3940451,None,,sushreesanjana,1,2023-10-16_14h51.24.232,sequential learning,2023.1.3,59.95153518,,0.3778435,0.3940451,,,,
50,c,0,0,0,0,13,3,55,2,,,,,148.2070935,149.2068663,149.2068663,149.2068663,149.2068663,149.2068663,150.2065637,150.2065637,c,1,0.4140952,None,,sushreesanjana,1,2023-10-16_14h51.24.232,sequential learning,2023.1.3,59.95153518,,0.3087522,0.4140952,,,,
50,c,0,0,0,0,14,0,56,2,,,,,150.6399147,151.6400551,151.6400551,151.6400551,151.6400551,151.6400551,152.6394947,152.6394947,c,1,0.3561449,None,,sushreesanjana,1,2023-10-16_14h51.24.232,sequential learning,2023.1.3,59.95153518,,0.3955439,0.3561449,,,,
50,c,0,0,0,0,14,1,57,2,,,,,153.0230063,154.0229717,154.0229717,154.0229717,154.0229717,154.0229717,155.0227396,155.0227396,c,1,0.3210777,None,,sushreesanjana,1,2023-10-16_14h51.24.232,sequential learning,2023.1.3,59.95153518,,0.405332,0.3210777,,,,
-150,z,0,0,0,0,14,2,58,3,,,,,155.3725348,156.3727822,156.3727822,156.3727822,156.3727822,156.3727822,157.3722007,157.3722007,z,1,0.409471,None,,sushreesanjana,1,2023-10-16_14h51.24.232,sequential learning,2023.1.3,59.95153518,,0.3368892,0.409471,,,,
50,c,0,0,0,0,14,3,59,2,,,,,157.8056188,158.8056354,158.8056354,158.8056354,158.8056354,158.8056354,159.8055765,159.8055765,c,1,0.3791381,None,,sushreesanjana,1,2023-10-16_14h51.24.232,sequential learning,2023.1.3,59.95153518,,0.2749572,0.3791381,,,,
-150,z,0,0,0,0,15,0,60,3,,,,,160.2054086,161.2050656,161.2050656,161.2050656,161.2050656,161.2050656,162.2053443,162.2053443,z,1,0.4427871,None,,sushreesanjana,1,2023-10-16_14h51.24.232,sequential learning,2023.1.3,59.95153518,,0.4678194,0.4427871,,,,
-50,x,0,0,0,0,15,1,61,0,,,,,162.6716609,163.6717913,163.6717913,163.6717913,163.6717913,163.6717913,164.6714695,164.6714695,x,1,0.4818195,None,,sushreesanjana,1,2023-10-16_14h51.24.232,sequential learning,2023.1.3,59.95153518,,0.2731548,0.4818195,,,,
-50,x,0,0,0,0,15,2,62,0,,,,,165.1713817,166.1712322,166.1712322,166.1712322,166.1712322,166.1712322,167.1711541,167.1711541,x,1,0.3815273,None,,sushreesanjana,1,2023-10-16_14h51.24.232,sequential learning,2023.1.3,59.95153518,,0.274042,0.3815273,,,,
-50,x,0,0,0,0,15,3,63,0,,,,,167.571231,168.5709985,168.5709985,168.5709985,168.5709985,168.5709985,169.5708977,169.5708977,x,1,0.372912,None,,sushreesanjana,1,2023-10-16_14h51.24.232,sequential learning,2023.1.3,59.95153518,,0.3538518,0.372912,,,,
-50,x,0,0,0,0,16,0,64,0,,,,,169.9707166,170.9706825,170.9706825,170.9706825,170.9706825,170.9706825,171.9705748,171.9705748,x,1,0.3484126,None,,sushreesanjana,1,2023-10-16_14h51.24.232,sequential learning,2023.1.3,59.95153518,,0.5234261,0.3484126,,,,
-50,x,0,0,0,0,16,1,65,0,,,,,172.3371259,173.3371661,173.3371661,173.3371661,173.3371661,173.3371661,174.3366765,174.3366765,x,1,0.4126158,None,,sushreesanjana,1,2023-10-16_14h51.24.232,sequential learning,2023.1.3,59.95153518,,0.3191401,0.4126158,,,,
-150,z,0,0,0,0,16,2,66,3,,,,,174.7703124,175.7701286,175.7701286,175.7701286,175.7701286,175.7701286,176.7696053,176.7696053,z,1,0.4884157,None,,sushreesanjana,1,2023-10-16_14h51.24.232,sequential learning,2023.1.3,59.95153518,,0.4512973,0.4884157,,,,
-50,x,0,0,0,0,16,3,67,0,,,,,177.2865412,178.2865383,178.2865383,178.2865383,178.2865383,178.2865383,179.286125,179.286125,x,1,0.4909751,None,,sushreesanjana,1,2023-10-16_14h51.24.232,sequential learning,2023.1.3,59.95153518,,0.206572,0.4909751,,,,
-150,z,0,0,0,0,17,0,68,3,,,,,179.8030543,180.8028925,180.8028925,180.8028925,180.8028925,180.8028925,181.8026147,181.8026147,z,1,0.5195828,None,,sushreesanjana,1,2023-10-16_14h51.24.232,sequential learning,2023.1.3,59.95153518,,0.4398139,0.5195828,,,,
150,v,0,0,0,0,17,1,69,1,,,,,182.3526709,183.3527229,183.3527229,183.3527229,183.3527229,183.3527229,184.352111,184.352111,v,1,0.4824002,None,,sushreesanjana,1,2023-10-16_14h51.24.232,sequential learning,2023.1.3,59.95153518,,0.4108253,0.4824002,,,,
-150,z,0,0,0,0,17,2,70,3,,,,,184.8520581,185.8521191,185.8521191,185.8521191,185.8521191,185.8521191,186.8519265,186.8519265,z,1,0.3684438,None,,sushreesanjana,1,2023-10-16_14h51.24.232,sequential learning,2023.1.3,59.95153518,,0.5029481,0.3684438,,,,
-150,z,0,0,0,0,17,3,71,3,,,,,187.2519106,188.2517023,188.2517023,188.2517023,188.2517023,188.2517023,189.251906,189.251906,z,1,0.4404527,None,,sushreesanjana,1,2023-10-16_14h51.24.232,sequential learning,2023.1.3,59.95153518,,0.3668011,0.4404527,,,,
150,v,0,0,0,0,18,0,72,1,,,,,189.7182372,190.7183274,190.7183274,190.7183274,190.7183274,190.7183274,191.7177896,191.7177896,v,1,0.4759338,None,,sushreesanjana,1,2023-10-16_14h51.24.232,sequential learning,2023.1.3,59.95153518,,1.3249369,0.4759338,,,,
150,v,0,0,0,0,18,1,73,1,,,,,192.2181304,193.2178878,193.2178878,193.2178878,193.2178878,193.2178878,194.2176851,194.2176851,v,1,0.4173831,None,,sushreesanjana,1,2023-10-16_14h51.24.232,sequential learning,2023.1.3,59.95153518,,1.0223292,0.4173831,,,,
-50,x,0,0,0,0,18,2,74,0,,,,,194.6674888,195.6674666,195.6674666,195.6674666,195.6674666,195.6674666,196.6674134,196.6674134,x,1,0.4334505,None,,sushreesanjana,1,2023-10-16_14h51.24.232,sequential learning,2023.1.3,59.95153518,,0.538742,0.4334505,,,,
-150,z,0,0,0,0,18,3,75,3,,,,,197.117365,198.1172983,198.1172983,198.1172983,198.1172983,198.1172983,199.1169203,199.1169203,z,1,0.4167501,None,,sushreesanjana,1,2023-10-16_14h51.24.232,sequential learning,2023.1.3,59.95153518,,0.7103513,0.4167501,,,,
-150,z,0,0,0,0,19,0,76,3,,,,,199.5504606,200.5502131,200.5502131,200.5502131,200.5502131,200.5502131,201.55012,201.55012,z,1,0.3860615,None,,sushreesanjana,1,2023-10-16_14h51.24.232,sequential learning,2023.1.3,59.95153518,,0.8039839,0.3860615,,,,
50,c,0,0,0,0,19,1,77,2,,,,,201.9664978,202.9663934,202.9663934,202.9663934,202.9663934,202.9663934,203.9661727,203.9661727,c,1,0.5741479,None,,sushreesanjana,1,2023-10-16_14h51.24.232,sequential learning,2023.1.3,59.95153518,,0.7257396,0.5741479,,,,
150,v,0,0,0,0,19,2,78,1,,,,,204.5660817,205.5661555,205.5661555,205.5661555,205.5661555,205.5661555,206.5658361,206.5658361,v,1,0.3900754,None,,sushreesanjana,1,2023-10-16_14h51.24.232,sequential learning,2023.1.3,59.95153518,,0.4537581,0.3900754,,,,
-50,x,0,0,0,0,19,3,79,0,,,,,206.9826631,207.982678,207.982678,207.982678,207.982678,207.982678,208.982389,208.982389,x,1,0.5593054,None,,sushreesanjana,1,2023-10-16_14h51.24.232,sequential learning,2023.1.3,59.95153518,,0.2669311,0.5593054,,,,
-50,x,0,0,0,0,20,0,80,0,,,,,209.565868,210.5655931,210.5655931,210.5655931,210.5655931,210.5655931,211.5654487,211.5654487,x,1,0.4104156,None,,sushreesanjana,1,2023-10-16_14h51.24.232,sequential learning,2023.1.3,59.95153518,,0.2971655,0.4104156,,,,
150,v,0,0,0,0,20,1,81,1,,,,,211.9988325,212.998608,212.998608,212.998608,212.998608,212.998608,213.9983853,213.9983853,v,1,0.4967739,None,,sushreesanjana,1,2023-10-16_14h51.24.232,sequential learning,2023.1.3,59.95153518,,0.2525241,0.4967739,,,,
150,v,0,0,0,0,20,2,82,1,,,,,214.5147052,215.5149398,215.5149398,215.5149398,215.5149398,215.5149398,216.5147006,216.5147006,v,1,0.4151977,None,,sushreesanjana,1,2023-10-16_14h51.24.232,sequential learning,2023.1.3,59.95153518,,0.2658193,0.4151977,,,,
50,c,0,0,0,0,20,3,83,2,,,,,216.9483263,217.94777,217.94777,217.94777,217.94777,217.94777,218.9479095,218.9479095,c,1,0.6472001,None,,sushreesanjana,1,2023-10-16_14h51.24.232,sequential learning,2023.1.3,59.95153518,,0.3753006,0.6472001,,,,
-150,z,0,0,0,0,21,0,84,3,,,,,219.6142266,220.6139673,220.6139673,220.6139673,220.6139673,220.6139673,221.6139176,221.6139176,z,1,0.3816705,None,,sushreesanjana,1,2023-10-16_14h51.24.232,sequential learning,2023.1.3,59.95153518,,0.6734758,0.3816705,,,,
-50,x,0,0,0,0,21,1,85,0,,,,,222.0139048,223.013764,223.013764,223.013764,223.013764,223.013764,224.0137254,224.0137254,x,1,0.7352598,None,,sushreesanjana,1,2023-10-16_14h51.24.232,sequential learning,2023.1.3,59.95153518,,0.4193865,0.7352598,,,,
-50,x,0,0,0,0,21,2,86,0,,,,,224.7805742,225.7802527,225.7802527,225.7802527,225.7802527,225.7802527,226.7803198,226.7803198,x,1,0.3497646,None,,sushreesanjana,1,2023-10-16_14h51.24.232,sequential learning,2023.1.3,59.95153518,,0.3309884,0.3497646,,,,
-50,x,0,0,0,0,21,3,87,0,,,,,227.146979,228.1467519,228.1467519,228.1467519,228.1467519,228.1467519,229.1467772,229.1467772,x,1,0.353658,None,,sushreesanjana,1,2023-10-16_14h51.24.232,sequential learning,2023.1.3,59.95153518,,0.3724733,0.353658,,,,
-50,x,0,0,0,0,22,0,88,0,,,,,229.5297427,230.5298037,230.5298037,230.5298037,230.5298037,230.5298037,231.5296397,231.5296397,x,1,0.3028176,None,,sushreesanjana,1,2023-10-16_14h51.24.232,sequential learning,2023.1.3,59.95153518,,0.4544609,0.3028176,,,,
50,c,0,0,0,0,22,1,89,2,,,,,231.8627641,232.86257,232.86257,232.86257,232.86257,232.86257,233.8622484,233.8622484,c,1,0.3374707,None,,sushreesanjana,1,2023-10-16_14h51.24.232,sequential learning,2023.1.3,59.95153518,,0.3810922,0.3374707,,,,
-50,x,0,0,0,0,22,2,90,0,,,,,234.2290853,235.2293788,235.2293788,235.2293788,235.2293788,235.2293788,236.2290957,236.2290957,x,1,0.4222764,None,,sushreesanjana,1,2023-10-16_14h51.24.232,sequential learning,2023.1.3,59.95153518,,0.4746789,0.4222764,,,,
-50,x,0,0,0,0,22,3,91,0,,,,,236.6787531,237.6788323,237.6788323,237.6788323,237.6788323,237.6788323,238.6784886,238.6784886,x,1,0.3626048,None,,sushreesanjana,1,2023-10-16_14h51.24.232,sequential learning,2023.1.3,59.95153518,,0.3055214,0.3626048,,,,
50,c,0,0,0,0,23,0,92,2,,,,,239.0617053,240.0615231,240.0615231,240.0615231,240.0615231,240.0615231,241.0614291,241.0614291,c,1,0.4571665,None,,sushreesanjana,1,2023-10-16_14h51.24.232,sequential learning,2023.1.3,59.95153518,,0.2728702,0.4571665,,,,
50,c,0,0,0,0,23,1,93,2,,,,,241.5451529,242.5450171,242.5450171,242.5450171,242.5450171,242.5450171,243.5449691,243.5449691,c,1,0.369147,None,,sushreesanjana,1,2023-10-16_14h51.24.232,sequential learning,2023.1.3,59.95153518,,0.2615603,0.369147,,,,
150,v,0,0,0,0,23,2,94,1,,,,,243.9445182,244.944651,244.944651,244.944651,244.944651,244.944651,245.9444954,245.9444954,v,1,0.4450404,None,,sushreesanjana,1,2023-10-16_14h51.24.232,sequential learning,2023.1.3,59.95153518,,0.2079864,0.4450404,,,,
50,c,0,0,0,0,23,3,95,2,,,,,246.4108978,247.4108273,247.4108273,247.4108273,247.4108273,247.4108273,248.4107729,248.4107729,c,1,0.3663292,None,,sushreesanjana,1,2023-10-16_14h51.24.232,sequential learning,2023.1.3,59.95153518,,0.2322857,0.3663292,,,,
-150,z,0,0,0,0,24,0,96,3,,,,,248.7938501,249.7937925,249.7937925,249.7937925,249.7937925,249.7937925,250.7936146,250.7936146,z,1,0.5116389,None,,sushreesanjana,1,2023-10-16_14h51.24.232,sequential learning,2023.1.3,59.95153518,,0.2389705,0.5116389,,,,
-150,z,0,0,0,0,24,1,97,3,,,,,251.3270057,252.3269985,252.3269985,252.3269985,252.3269985,252.3269985,253.3266181,253.3266181,z,1,0.4624028,None,,sushreesanjana,1,2023-10-16_14h51.24.232,sequential learning,2023.1.3,59.95153518,,0.2855807,0.4624028,,,,
150,v,0,0,0,0,24,2,98,1,,,,,253.8098135,254.809724,254.809724,254.809724,254.809724,254.809724,255.8097122,255.8097122,v,1,0.4014283,None,,sushreesanjana,1,2023-10-16_14h51.24.232,sequential learning,2023.1.3,59.95153518,,0.0112885,0.4014283,,,,
-50,x,0,0,0,0,24,3,99,0,,,,,256.2431733,257.2431896,257.2431896,257.2431896,257.2431896,257.2431896,258.2428617,258.2428617,x,1,0.4094379,None,,sushreesanjana,1,2023-10-16_14h51.24.232,sequential learning,2023.1.3,59.95153518,,0.1999899,0.4094379,,,,
150,v,0,0,0,0,25,0,100,1,,,,,258.6760901,259.6759102,259.6759102,259.6759102,259.6759102,259.6759102,260.6757402,260.6757402,v,1,0.4058024,None,,sushreesanjana,1,2023-10-16_14h51.24.232,sequential learning,2023.1.3,59.95153518,,0.5076996,0.4058024,,,,
50,c,0,0,0,0,25,1,101,2,,,,,261.108987,262.1090088,262.1090088,262.1090088,262.1090088,262.1090088,263.1087713,263.1087713,c,1,0.4198999,None,,sushreesanjana,1,2023-10-16_14h51.24.232,sequential learning,2023.1.3,59.95153518,,0.2557137,0.4198999,,,,
-50,x,0,0,0,0,25,2,102,0,,,,,263.5588781,264.5588253,264.5588253,264.5588253,264.5588253,264.5588253,265.5582442,265.5582442,x,1,0.4874241,None,,sushreesanjana,1,2023-10-16_14h51.24.232,sequential learning,2023.1.3,59.95153518,,0.2430394,0.4874241,,,,
-150,z,0,0,0,0,25,3,103,3,,,,,266.0750519,267.0751355,267.0751355,267.0751355,267.0751355,267.0751355,268.0749744,268.0749744,z,1,0.3163397,None,,sushreesanjana,1,2023-10-16_14h51.24.232,sequential learning,2023.1.3,59.95153518,,0.4449658,0.3163397,,,,
150,v,0,0,0,0,26,0,104,1,,,,,268.4082664,269.4082574,269.4082574,269.4082574,269.4082574,269.4082574,270.407907,270.407907,v,1,0.3862505,None,,sushreesanjana,1,2023-10-16_14h51.24.232,sequential learning,2023.1.3,59.95153518,,0.3870711,0.3862505,,,,
-150,z,0,0,0,0,26,1,105,3,,,,,270.8246088,271.8242808,271.8242808,271.8242808,271.8242808,271.8242808,272.8241645,272.8241645,z,1,0.384479,None,,sushreesanjana,1,2023-10-16_14h51.24.232,sequential learning,2023.1.3,59.95153518,,0.2583228,0.384479,,,,
150,v,0,0,0,0,26,2,106,1,,,,,273.2408673,274.2407566,274.2407566,274.2407566,274.2407566,274.2407566,275.2407491,275.2407491,v,1,0.4125972,None,,sushreesanjana,1,2023-10-16_14h51.24.232,sequential learning,2023.1.3,59.95153518,,0.235985,0.4125972,,,,
-50,x,0,0,0,0,26,3,107,0,,,,,275.6738185,276.6740009,276.6740009,276.6740009,276.6740009,276.6740009,277.6736366,277.6736366,x,1,0.499863,None,,sushreesanjana,1,2023-10-16_14h51.24.232,sequential learning,2023.1.3,59.95153518,,0.2864325,0.499863,,,,
50,c,0,0,0,0,27,0,108,2,,,,,278.1901479,279.190517,279.190517,279.190517,279.190517,279.190517,280.190058,280.190058,c,1,0.4539136,None,,sushreesanjana,1,2023-10-16_14h51.24.232,sequential learning,2023.1.3,59.95153518,,0.0230476,0.4539136,,,,
150,v,0,0,0,0,27,1,109,1,,,,,280.6731538,281.6730235,281.6730235,281.6730235,281.6730235,281.6730235,282.673051,282.673051,v,1,0.415565,None,,sushreesanjana,1,2023-10-16_14h51.24.232,sequential learning,2023.1.3,59.95153518,,0.2467149,0.415565,,,,
150,v,0,0,0,0,27,2,110,1,,,,,283.1062187,284.1060544,284.1060544,284.1060544,284.1060544,284.1060544,285.105848,285.105848,v,1,0.3917099,None,,sushreesanjana,1,2023-10-16_14h51.24.232,sequential learning,2023.1.3,59.95153518,,0.1993263,0.3917099,,,,
50,c,0,0,0,0,27,3,111,2,,,,,285.522351,286.5225799,286.5225799,286.5225799,286.5225799,286.5225799,287.5224527,287.5224527,c,1,0.3984033,None,,sushreesanjana,1,2023-10-16_14h51.24.232,sequential learning,2023.1.3,59.95153518,,0.2767592,0.3984033,,,,
-150,z,0,0,0,0,28,0,112,3,,,,,287.9390402,288.9389045,288.9389045,288.9389045,288.9389045,288.9389045,289.9387669,289.9387669,z,1,0.38392,None,,sushreesanjana,1,2023-10-16_14h51.24.232,sequential learning,2023.1.3,59.95153518,,0.2467016,0.38392,,,,
50,c,0,0,0,0,28,1,113,2,,,,,290.3551677,291.3551038,291.3551038,291.3551038,291.3551038,291.3551038,292.3550005,292.3550005,c,1,0.5562944,None,,sushreesanjana,1,2023-10-16_14h51.24.232,sequential learning,2023.1.3,59.95153518,,0.2869889,0.5562944,,,,
150,v,0,0,0,0,28,2,114,1,,,,,292.9380677,293.9382222,293.9382222,293.9382222,293.9382222,293.9382222,294.9380876,294.9380876,v,1,0.326552,None,,sushreesanjana,1,2023-10-16_14h51.24.232,sequential learning,2023.1.3,59.95153518,,0.1385619,0.326552,,,,
-50,x,0,0,0,0,28,3,115,0,,,,,295.2879077,296.2878585,296.2878585,296.2878585,296.2878585,296.2878585,297.2877141,297.2877141,x,1,0.4348165,None,,sushreesanjana,1,2023-10-16_14h51.24.232,sequential learning,2023.1.3,59.95153518,,0.252575,0.4348165,,,,
-150,z,0,0,0,0,29,0,116,3,,,,,297.7542012,298.7541282,298.7541282,298.7541282,298.7541282,298.7541282,299.7539013,299.7539013,z,1,0.3704657,None,,sushreesanjana,1,2023-10-16_14h51.24.232,sequential learning,2023.1.3,59.95153518,,0.2585379,0.3704657,,,,
50,c,0,0,0,0,29,1,117,2,,,,,300.1539728,301.1539302,301.1539302,301.1539302,301.1539302,301.1539302,302.1537974,302.1537974,c,1,0.3366236,None,,sushreesanjana,1,2023-10-16_14h51.24.232,sequential learning,2023.1.3,59.95153518,,0.2912105,0.3366236,,,,
-50,x,0,0,0,0,29,2,118,0,,,,,302.5204996,303.5203818,303.5203818,303.5203818,303.5203818,303.5203818,304.5202165,304.5202165,x,1,0.4855769,None,,sushreesanjana,1,2023-10-16_14h51.24.232,sequential learning,2023.1.3,59.95153518,,0.2410189,0.4855769,,,,
-150,z,0,0,0,0,29,3,119,3,,,,,305.0368583,306.0368018,306.0368018,306.0368018,306.0368018,306.0368018,307.0363265,307.0363265,z,1,0.4125411,None,,sushreesanjana,1,2023-10-16_14h51.24.232,sequential learning,2023.1.3,59.95153518,,0.2409953,0.4125411,,,,
150,v,0,0,0,0,30,0,120,1,,,,,307.4696809,308.4697725,308.4697725,308.4697725,308.4697725,308.4697725,309.4695526,309.4695526,v,1,0.3451318,None,,sushreesanjana,1,2023-10-16_14h51.24.232,sequential learning,2023.1.3,59.95153518,,0.278664,0.3451318,,,,
-150,z,0,0,0,0,30,1,121,3,,,,,309.8360907,310.8360485,310.8360485,310.8360485,310.8360485,310.8360485,311.8357493,311.8357493,z,1,0.5975427,None,,sushreesanjana,1,2023-10-16_14h51.24.232,sequential learning,2023.1.3,59.95153518,,0.2752513,0.5975427,,,,
50,c,0,0,0,0,30,2,122,2,,,,,312.4522815,313.4523629,313.4523629,313.4523629,313.4523629,313.4523629,314.4520732,314.4520732,c,1,0.511098,None,,sushreesanjana,1,2023-10-16_14h51.24.232,sequential learning,2023.1.3,59.95153518,,0.3195455,0.511098,,,,
50,c,0,0,0,0,30,3,123,2,,,,,314.9851636,315.9855329,315.9855329,315.9855329,315.9855329,315.9855329,316.9853121,316.9853121,c,1,0.5122849,None,,sushreesanjana,1,2023-10-16_14h51.24.232,sequential learning,2023.1.3,59.95153518,,0.5659902,0.5122849,,,,
50,c,0,0,0,0,31,0,124,2,,,,,317.5184793,318.5180734,318.5180734,318.5180734,318.5180734,318.5180734,319.5181834,319.5181834,c,1,0.4017664,None,,sushreesanjana,1,2023-10-16_14h51.24.232,sequential learning,2023.1.3,59.95153518,,0.4077821,0.4017664,,,,
50,c,0,0,0,0,31,1,125,2,,,,,319.9517301,320.9512786,320.9512786,320.9512786,320.9512786,320.9512786,321.9512061,321.9512061,c,1,0.3740123,None,,sushreesanjana,1,2023-10-16_14h51.24.232,sequential learning,2023.1.3,59.95153518,,0.3060668,0.3740123,,,,
-150,z,0,0,0,0,31,2,126,3,,,,,322.3508966,323.3511581,323.3511581,323.3511581,323.3511581,323.3511581,324.3507341,324.3507341,z,1,0.428934,None,,sushreesanjana,1,2023-10-16_14h51.24.232,sequential learning,2023.1.3,59.95153518,,0.4750035,0.428934,,,,
50,c,0,0,0,0,31,3,127,2,,,,,324.8003293,325.8007522,325.8007522,325.8007522,325.8007522,325.8007522,326.8003285,326.8003285,c,1,0.4697581,None,,sushreesanjana,1,2023-10-16_14h51.24.232,sequential learning,2023.1.3,59.95153518,,0.2806524,0.4697581,,,,
-150,z,0,0,0,0,32,0,128,3,,,,,327.3006616,328.3006093,328.3006093,328.3006093,328.3006093,328.3006093,329.3004328,329.3004328,z,1,0.4659092,None,,sushreesanjana,1,2023-10-16_14h51.24.232,sequential learning,2023.1.3,59.95153518,,0.2489656,0.4659092,,,,
50,c,0,0,0,0,32,1,129,2,,,,,329.7835453,330.7834793,330.7834793,330.7834793,330.7834793,330.7834793,331.7835286,331.7835286,c,1,0.3947055,None,,sushreesanjana,1,2023-10-16_14h51.24.232,sequential learning,2023.1.3,59.95153518,,0.2903828,0.3947055,,,,
150,v,0,0,0,0,32,2,130,1,,,,,332.1997788,333.1997337,333.1997337,333.1997337,333.1997337,333.1997337,334.1994602,334.1994602,v,1,0.4832982,None,,sushreesanjana,1,2023-10-16_14h51.24.232,sequential learning,2023.1.3,59.95153518,,0.2740986,0.4832982,,,,
150,v,0,0,0,0,32,3,131,1,,,,,334.6994761,335.6992032,335.6992032,335.6992032,335.6992032,335.6992032,336.699444,336.699444,v,1,0.4050466,None,,sushreesanjana,1,2023-10-16_14h51.24.232,sequential learning,2023.1.3,59.95153518,,0.3012361,0.4050466,,,,
50,c,0,0,0,0,33,0,132,2,,,,,337.1326225,338.1326644,338.1326644,338.1326644,338.1326644,338.1326644,339.1321347,339.1321347,c,1,0.4310607,None,,sushreesanjana,1,2023-10-16_14h51.24.232,sequential learning,2023.1.3,59.95153518,,0.4690353,0.4310607,,,,
-50,x,0,0,0,0,33,1,133,0,,,,,339.5824733,340.582191,340.582191,340.582191,340.582191,340.582191,341.5821851,341.5821851,x,1,0.5564331,None,,sushreesanjana,1,2023-10-16_14h51.24.232,sequential learning,2023.1.3,59.95153518,,0.1228871,0.5564331,,,,
50,c,0,0,0,0,33,2,134,2,,,,,342.1652405,343.1651778,343.1651778,343.1651778,343.1651778,343.1651778,344.1651484,344.1651484,c,1,0.5949199,None,,sushreesanjana,1,2023-10-16_14h51.24.232,sequential learning,2023.1.3,59.95153518,,0.3058628,0.5949199,,,,
150,v,0,0,0,0,33,3,135,1,,,,,344.7817356,345.7816223,345.7816223,345.7816223,345.7816223,345.7816223,346.7813429,346.7813429,v,1,0.6213969,None,,sushreesanjana,1,2023-10-16_14h51.24.232,sequential learning,2023.1.3,59.95153518,,0.3191285,0.6213969,,,,
50,c,0,0,0,0,34,0,136,2,,,,,347.4312678,348.4312929,348.4312929,348.4312929,348.4312929,348.4312929,349.4309965,349.4309965,c,1,0.4203471,None,,sushreesanjana,1,2023-10-16_14h51.24.232,sequential learning,2023.1.3,59.95153518,,0.2511793,0.4203471,,,,
-50,x,0,0,0,0,34,1,137,0,,,,,349.8808092,350.8810346,350.8810346,350.8810346,350.8810346,350.8810346,351.8806208,351.8806208,x,1,0.4608669,None,,sushreesanjana,1,2023-10-16_14h51.24.232,sequential learning,2023.1.3,59.95153518,,0.2771199,0.4608669,,,,
150,v,0,0,0,0,34,2,138,1,,,,,352.364027,353.3638304,353.3638304,353.3638304,353.3638304,353.3638304,354.3636626,354.3636626,v,1,0.4600852,None,,sushreesanjana,1,2023-10-16_14h51.24.232,sequential learning,2023.1.3,59.95153518,,0.2401691,0.4600852,,,,
-150,z,0,0,0,0,34,3,139,3,,,,,354.8467547,355.8470913,355.8470913,355.8470913,355.8470913,355.8470913,356.846646,356.846646,z,1,0.3699089,None,,sushreesanjana,1,2023-10-16_14h51.24.232,sequential learning,2023.1.3,59.95153518,,0.4736566,0.3699089,,,,
-50,x,0,0,0,0,35,0,140,0,,,,,357.2465662,358.246547,358.246547,358.246547,358.246547,358.246547,359.2464236,359.2464236,x,1,0.4644974,None,,sushreesanjana,1,2023-10-16_14h51.24.232,sequential learning,2023.1.3,59.95153518,,0.1233172,0.4644974,,,,
-150,z,0,0,0,0,35,1,141,3,,,,,359.7299996,360.7297475,360.7297475,360.7297475,360.7297475,360.7297475,361.7291613,361.7291613,z,1,0.4622856,None,,sushreesanjana,1,2023-10-16_14h51.24.232,sequential learning,2023.1.3,59.95153518,,0.2576908,0.4622856,,,,
150,v,0,0,0,0,35,2,142,1,,,,,362.2126855,363.2127057,363.2127057,363.2127057,363.2127057,363.2127057,364.2122162,364.2122162,v,1,0.3114207,None,,sushreesanjana,1,2023-10-16_14h51.24.232,sequential learning,2023.1.3,59.95153518,,0.2637803,0.3114207,,,,
150,v,0,0,0,0,35,3,143,1,,,,,364.5455132,365.5456142,365.5456142,365.5456142,365.5456142,365.5456142,366.5452213,366.5452213,v,1,0.4122145,None,,sushreesanjana,1,2023-10-16_14h51.24.232,sequential learning,2023.1.3,59.95153518,,0.3193832,0.4122145,,,,
150,v,0,0,0,0,36,0,144,1,,,,,366.9786192,367.9786452,367.9786452,367.9786452,367.9786452,367.9786452,368.978472,368.978472,v,1,0.4351216,None,,sushreesanjana,1,2023-10-16_14h51.24.232,sequential learning,2023.1.3,59.95153518,,0.2328785,0.4351216,,,,
50,c,0,0,0,0,36,1,145,2,,,,,369.4280163,370.4283357,370.4283357,370.4283357,370.4283357,370.4283357,371.4279331,371.4279331,c,1,0.4238688,None,,sushreesanjana,1,2023-10-16_14h51.24.232,sequential learning,2023.1.3,59.95153518,,0.2655171,0.4238688,,,,
50,c,0,0,0,0,36,2,146,2,,,,,371.8781162,372.8780317,372.8780317,372.8780317,372.8780317,372.8780317,373.8779072,373.8779072,c,1,0.3599695,None,,sushreesanjana,1,2023-10-16_14h51.24.232,sequential learning,2023.1.3,59.95153518,,0.1592119,0.3599695,,,,
-50,x,0,0,0,0,36,3,147,0,,,,,374.2613749,375.2610069,375.2610069,375.2610069,375.2610069,375.2610069,376.2606852,376.2606852,x,1,0.4304782,None,,sushreesanjana,1,2023-10-16_14h51.24.232,sequential learning,2023.1.3,59.95153518,,0.3960672,0.4304782,,,,
150,v,0,0,0,0,37,0,148,1,,,,,376.7105369,377.7107687,377.7107687,377.7107687,377.7107687,377.7107687,378.7105399,378.7105399,v,1,0.3724131,None,,sushreesanjana,1,2023-10-16_14h51.24.232,sequential learning,2023.1.3,59.95153518,,0.2901866,0.3724131,,,,
150,v,0,0,0,0,37,1,149,1,,,,,379.1104676,380.1106756,380.1106756,380.1106756,380.1106756,380.1106756,381.1102051,381.1102051,v,1,0.3826108,None,,sushreesanjana,1,2023-10-16_14h51.24.232,sequential learning,2023.1.3,59.95153518,,0.2682069,0.3826108,,,,
-150,z,0,0,0,0,37,2,150,3,,,,,381.5103222,382.509806,382.509806,382.509806,382.509806,382.509806,383.5101909,383.5101909,z,1,0.3899848,None,,sushreesanjana,1,2023-10-16_14h51.24.232,sequential learning,2023.1.3,59.95153518,,0.2164199,0.3899848,,,,
150,v,0,0,0,0,37,3,151,1,,,,,383.9263138,384.9266493,384.9266493,384.9266493,384.9266493,384.9266493,385.9262962,385.9262962,v,1,0.3867856,None,,sushreesanjana,1,2023-10-16_14h51.24.232,sequential learning,2023.1.3,59.95153518,,0.2349807,0.3867856,,,,
150,v,0,0,0,0,38,0,152,1,,,,,386.3428014,387.3428035,387.3428035,387.3428035,387.3428035,387.3428035,388.3425872,388.3425872,v,1,0.4595046,None,,sushreesanjana,1,2023-10-16_14h51.24.232,sequential learning,2023.1.3,59.95153518,,0.228541,0.4595046,,,,
150,v,0,0,0,0,38,2,154,1,,,,,391.2757228,392.2757229,392.2757229,392.2757229,392.2757229,392.2757229,393.2752784,393.2752784,v,1,0.4575598,None,,sushreesanjana,1,2023-10-16_14h51.24.232,sequential learning,2023.1.3,59.95153518,,0.2928218,0.4575598,,,,
-50,x,0,0,0,0,38,3,155,0,,,,,393.7584526,394.7586354,394.7586354,394.7586354,394.7586354,394.7586354,395.7586803,395.7586803,x,1,0.4792527,None,,sushreesanjana,1,2023-10-16_14h51.24.232,sequential learning,2023.1.3,59.95153518,,0.3125136,0.4792527,,,,
-150,z,0,0,0,0,39,0,156,3,,,,,396.258529,397.2584701,397.2584701,397.2584701,397.2584701,397.2584701,398.2579815,398.2579815,z,1,0.5748168,None,,sushreesanjana,1,2023-10-16_14h51.24.232,sequential learning,2023.1.3,59.95153518,,0.2348784,0.5748168,,,,
150,v,0,0,0,0,39,1,157,1,,,,,398.8579947,399.8579363,399.8579363,399.8579363,399.8579363,399.8579363,400.8577666,400.8577666,v,1,0.4312177,None,,sushreesanjana,1,2023-10-16_14h51.24.232,sequential learning,2023.1.3,59.95153518,,0.2391537,0.4312177,,,,
50,c,0,0,0,0,39,2,158,2,,,,,401.3078926,402.3075329,402.3075329,402.3075329,402.3075329,402.3075329,403.3074629,403.3074629,c,1,0.4147751,None,,sushreesanjana,1,2023-10-16_14h51.24.232,sequential learning,2023.1.3,59.95153518,,0.2886953,0.4147751,,,,
-50,x,0,0,0,0,40,0,160,0,,,,,406.1898454,407.18998,407.18998,407.18998,407.18998,407.18998,408.1900085,408.1900085,x,1,0.4197569,None,,sushreesanjana,1,2023-10-16_14h51.24.232,sequential learning,2023.1.3,59.95153518,,0.2233304,0.4197569,,,,
-50,x,0,0,0,0,40,1,161,0,,,,,408.6397179,409.6396896,409.6396896,409.6396896,409.6396896,409.6396896,410.6399626,410.6399626,x,1,0.4487652,None,,sushreesanjana,1,2023-10-16_14h51.24.232,sequential learning,2023.1.3,59.95153518,,0.4182313,0.4487652,,,,
150,v,0,0,0,0,40,2,162,1,,,,,411.1063609,412.1064704,412.1064704,412.1064704,412.1064704,412.1064704,413.1061362,413.1061362,v,1,0.586189,None,,sushreesanjana,1,2023-10-16_14h51.24.232,sequential learning,2023.1.3,59.95153518,,0.341822,0.586189,,,,
50,c,0,0,0,0,40,3,163,2,,,,,413.7225666,414.7226985,414.7226985,414.7226985,414.7226985,414.7226985,415.7223086,415.7223086,c,1,0.5225407,None,,sushreesanjana,1,2023-10-16_14h51.24.232,sequential learning,2023.1.3,59.95153518,,0.4337796,0.5225407,,,,
150,v,0,0,0,0,41,0,164,1,,,,,416.2722076,417.2723865,417.2723865,417.2723865,417.2723865,417.2723865,418.2718293,418.2718293,v,1,0.7350178,None,,sushreesanjana,1,2023-10-16_14h51.24.232,sequential learning,2023.1.3,59.95153518,,0.2683114,0.7350178,,,,
150,v,0,0,0,0,41,1,165,1,,,,,419.0387142,420.0385474,420.0385474,420.0385474,420.0385474,420.0385474,421.0384352,421.0384352,v,1,0.6682712,None,,sushreesanjana,1,2023-10-16_14h51.24.232,sequential learning,2023.1.3,59.95153518,,0.2799312,0.6682712,,,,
-50,x,0,0,0,0,41,2,166,0,,,,,421.7382183,422.7378688,422.7378688,422.7378688,422.7378688,422.7378688,423.7379817,423.7379817,x,1,0.7451167,None,,sushreesanjana,1,2023-10-16_14h51.24.232,sequential learning,2023.1.3,59.95153518,,0.2431076,0.7451167,,,,
50,c,0,0,0,0,41,3,167,2,,,,,424.5048242,425.5046221,425.5046221,425.5046221,425.5046221,425.5046221,426.5044946,426.5044946,c,1,0.4239283,None,,sushreesanjana,1,2023-10-16_14h51.24.232,sequential learning,2023.1.3,59.95153518,,0.2425576,0.4239283,,,,
50,c,0,0,0,0,42,0,168,2,,,,,426.9544267,427.9541696,427.9541696,427.9541696,427.9541696,427.9541696,428.9539379,428.9539379,c,1,0.5320915,None,,sushreesanjana,1,2023-10-16_14h51.24.232,sequential learning,2023.1.3,59.95153518,,0.3223731,0.5320915,,,,
-50,x,0,0,0,0,42,1,169,0,,,,,429.5041607,430.503674,430.503674,430.503674,430.503674,430.503674,431.5038225,431.5038225,x,1,0.5541837,None,,sushreesanjana,1,2023-10-16_14h51.24.232,sequential learning,2023.1.3,59.95153518,,0.2722055,0.5541837,,,,
-50,x,0,0,0,0,42,2,170,0,,,,,432.0869962,433.0868865,433.0868865,433.0868865,433.0868865,433.0868865,434.0867684,434.0867684,x,1,0.3953438,None,,sushreesanjana,1,2023-10-16_14h51.24.232,sequential learning,2023.1.3,59.95153518,,0.2518672,0.3953438,,,,
150,v,0,0,0,0,42,3,171,1,,,,,434.5034623,435.5034454,435.5034454,435.5034454,435.5034454,435.5034454,436.5035973,436.5035973,v,1,0.33691,None,,sushreesanjana,1,2023-10-16_14h51.24.232,sequential learning,2023.1.3,59.95153518,,0.2827209,0.33691,,,,
-150,z,0,0,0,0,43,0,172,3,,,,,436.8698522,437.869635,437.869635,437.869635,437.869635,437.869635,438.8696048,438.8696048,z,1,0.4651578,None,,sushreesanjana,1,2023-10-16_14h51.24.232,sequential learning,2023.1.3,59.95153518,,0.3933966,0.4651578,,,,
-150,z,0,0,0,0,43,1,173,3,,,,,439.3525745,440.3523937,440.3523937,440.3523937,440.3523937,440.3523937,441.3525039,441.3525039,z,1,0.4815744,None,,sushreesanjana,1,2023-10-16_14h51.24.232,sequential learning,2023.1.3,59.95153518,,0.4292315,0.4815744,,,,
-50,x,0,0,0,0,43,2,174,0,,,,,441.8526143,442.8522244,442.8522244,442.8522244,442.8522244,442.8522244,443.8522012,443.8522012,x,1,0.489367,None,,sushreesanjana,1,2023-10-16_14h51.24.232,sequential learning,2023.1.3,59.95153518,,0.3711721,0.489367,,,,
-150,z,0,0,0,0,43,3,175,3,,,,,444.3686782,445.3687012,445.3687012,445.3687012,445.3687012,445.3687012,446.3685889,446.3685889,z,1,0.5405404,None,,sushreesanjana,1,2023-10-16_14h51.24.232,sequential learning,2023.1.3,59.95153518,,0.4060807,0.5405404,,,,
-150,z,0,0,0,0,44,0,176,3,,,,,446.9350283,447.9349619,447.9349619,447.9349619,447.9349619,447.9349619,448.9347788,448.9347788,z,1,0.5848488,None,,sushreesanjana,1,2023-10-16_14h51.24.232,sequential learning,2023.1.3,59.95153518,,0.5552756,0.5848488,,,,
-150,z,0,0,0,0,44,1,177,3,,,,,449.551405,450.5515143,450.5515143,450.5515143,450.5515143,450.5515143,451.5514777,451.5514777,z,1,0.4412527,None,,sushreesanjana,1,2023-10-16_14h51.24.232,sequential learning,2023.1.3,59.95153518,,0.2492702,0.4412527,,,,
50,c,0,0,0,0,44,2,178,2,,,,,452.0176625,453.0178039,453.0178039,453.0178039,453.0178039,453.0178039,454.0173667,454.0173667,c,1,0.569161,None,,sushreesanjana,1,2023-10-16_14h51.24.232,sequential learning,2023.1.3,59.95153518,,0.3205509,0.569161,,,,
150,v,0,0,0,0,44,3,179,1,,,,,454.6175602,455.6174525,455.6174525,455.6174525,455.6174525,455.6174525,456.6174057,456.6174057,v,1,0.3798275,None,,sushreesanjana,1,2023-10-16_14h51.24.232,sequential learning,2023.1.3,59.95153518,,0.2496208,0.3798275,,,,
-50,x,0,0,0,0,45,0,180,0,,,,,457.0173211,458.0169968,458.0169968,458.0169968,458.0169968,458.0169968,459.0171,459.0171,x,1,0.6973114,None,,sushreesanjana,1,2023-10-16_14h51.24.232,sequential learning,2023.1.3,59.95153518,,0.192148,0.6973114,,,,
-150,z,0,0,0,0,45,1,181,3,,,,,459.7331396,460.7332101,460.7332101,460.7332101,460.7332101,460.7332101,461.7331961,461.7331961,z,1,0.3627787,None,,sushreesanjana,1,2023-10-16_14h51.24.232,sequential learning,2023.1.3,59.95153518,,0.2528942,0.3627787,,,,
-150,z,0,0,0,0,45,2,182,3,,,,,462.1165654,463.116327,463.116327,463.116327,463.116327,463.116327,464.1161618,464.1161618,z,1,0.4319424,None,,sushreesanjana,1,2023-10-16_14h51.24.232,sequential learning,2023.1.3,59.95153518,,0.2329974,0.4319424,,,,
-150,z,0,0,0,0,45,3,183,3,,,,,464.5659709,465.565859,465.565859,465.565859,465.565859,465.565859,466.5661404,466.5661404,z,1,0.4570592,None,,sushreesanjana,1,2023-10-16_14h51.24.232,sequential learning,2023.1.3,59.95153518,,0.2668352,0.4570592,,,,
-150,z,0,0,0,0,46,0,184,3,,,,,467.0493666,468.0490175,468.0490175,468.0490175,468.0490175,468.0490175,469.0488981,469.0488981,z,1,0.3691722,None,,sushreesanjana,1,2023-10-16_14h51.24.232,sequential learning,2023.1.3,59.95153518,,0.2177314,0.3691722,,,,
-150,z,0,0,0,0,46,1,185,3,,,,,469.4490369,470.4484332,470.4484332,470.4484332,470.4484332,470.4484332,471.4487514,471.4487514,z,1,0.4144406,None,,sushreesanjana,1,2023-10-16_14h51.24.232,sequential learning,2023.1.3,59.95153518,,0.2957587,0.4144406,,,,
-50,x,0,0,0,0,46,2,186,0,,,,,471.8817493,472.8818512,472.8818512,472.8818512,472.8818512,472.8818512,473.8816071,473.8816071,x,1,0.4480856,None,,sushreesanjana,1,2023-10-16_14h51.24.232,sequential learning,2023.1.3,59.95153518,,0.2447962,0.4480856,,,,
50,c,0,0,0,0,46,3,187,2,,,,,474.3481047,475.3483053,475.3483053,475.3483053,475.3483053,475.3483053,476.3478917,476.3478917,c,1,0.338086,None,,sushreesanjana,1,2023-10-16_14h51.24.232,sequential learning,2023.1.3,59.95153518,,0.2477358,0.338086,,,,
-150,z,0,0,0,0,47,0,188,3,,,,,476.7146677,477.7145144,477.7145144,477.7145144,477.7145144,477.7145144,478.7142831,478.7142831,z,1,0.3896883,None,,sushreesanjana,1,2023-10-16_14h51.24.232,sequential learning,2023.1.3,59.95153518,,0.2422343,0.3896883,,,,
50,c,0,0,0,0,47,1,189,2,,,,,479.1309352,480.1308944,480.1308944,480.1308944,480.1308944,480.1308944,481.1307104,481.1307104,c,1,0.5000373,None,,sushreesanjana,1,2023-10-16_14h51.24.232,sequential learning,2023.1.3,59.95153518,,0.3065043,0.5000373,,,,
150,v,0,0,0,0,47,2,190,1,,,,,481.64712,482.6471798,482.6471798,482.6471798,482.6471798,482.6471798,483.6468256,483.6468256,v,1,0.3774521,None,,sushreesanjana,1,2023-10-16_14h51.24.232,sequential learning,2023.1.3,59.95153518,,0.2728732,0.3774521,,,,
-50,x,0,0,0,0,47,3,191,0,,,,,484.0471534,485.0469671,485.0469671,485.0469671,485.0469671,485.0469671,486.0468005,486.0468005,x,1,0.4592,None,,sushreesanjana,1,2023-10-16_14h51.24.232,sequential learning,2023.1.3,59.95153518,,0.3044574,0.4592,,,,
50,c,0,0,0,0,48,0,192,2,,,,,486.5296992,487.529683,487.529683,487.529683,487.529683,487.529683,488.5294991,488.5294991,c,1,0.384762,None,,sushreesanjana,1,2023-10-16_14h51.24.232,sequential learning,2023.1.3,59.95153518,,0.2937413,0.384762,,,,
-50,x,0,0,0,0,48,1,193,0,,,,,488.9464669,489.9463006,489.9463006,489.9463006,489.9463006,489.9463006,490.9462555,490.9462555,x,1,0.4427646,None,,sushreesanjana,1,2023-10-16_14h51.24.232,sequential learning,2023.1.3,59.95153518,,0.3292035,0.4427646,,,,
-150,z,0,0,0,0,48,2,194,3,,,,,491.4127029,492.4126814,492.4126814,492.4126814,492.4126814,492.4126814,493.412494,493.412494,z,1,0.3808357,None,,sushreesanjana,1,2023-10-16_14h51.24.232,sequential learning,2023.1.3,59.95153518,,0.2924198,0.3808357,,,,
50,c,0,0,0,0,48,3,195,2,,,,,493.8121641,494.8124101,494.8124101,494.8124101,494.8124101,494.8124101,495.8121046,495.8121046,c,1,0.6910546,None,,sushreesanjana,1,2023-10-16_14h51.24.232,sequential learning,2023.1.3,59.95153518,,0.3718438,0.6910546,,,,
150,v,0,0,0,0,49,0,196,1,,,,,496.5287722,497.5285442,497.5285442,497.5285442,497.5285442,497.5285442,498.5283608,498.5283608,v,1,0.3464511,None,,sushreesanjana,1,2023-10-16_14h51.24.232,sequential learning,2023.1.3,59.95153518,,0.3053016,0.3464511,,,,
-50,x,0,0,0,0,49,1,197,0,,,,,498.8948539,499.8951754,499.8951754,499.8951754,499.8951754,499.8951754,500.8948308,500.8948308,x,1,0.4532156,None,,sushreesanjana,1,2023-10-16_14h51.24.232,sequential learning,2023.1.3,59.95153518,,0.3171532,0.4532156,,,,
150,v,0,0,0,0,49,2,198,1,,,,,501.3778882,502.3780495,502.3780495,502.3780495,502.3780495,502.3780495,503.3779853,503.3779853,v,1,0.447104,None,,sushreesanjana,1,2023-10-16_14h51.24.232,sequential learning,2023.1.3,59.95153518,,0.3803798,0.447104,,,,
-150,z,0,0,0,0,49,3,199,3,,,,,503.8443738,504.8445372,504.8445372,504.8445372,504.8445372,504.8445372,505.8443245,505.8443245,z,1,0.4462286,None,,sushreesanjana,1,2023-10-16_14h51.24.232,sequential learning,2023.1.3,59.95153518,,0.250034,0.4462286,,,,
-50,x,0,0,0,0,,,,,0,0,0,0,506.31413,507.3105912,507.3105912,507.3105912,507.3105912,507.3270709,508.3107038,508.3107038,x,1,0.265917,None,,sushreesanjana,1,2023-10-16_14h51.24.232,sequential learning,2023.1.3,59.95153518,,,,,,,
150,v,0,0,0,0,,,,,0,1,1,1,508.5940183,509.5937758,509.5937758,509.5937758,509.5937758,509.5937758,510.593453,510.593453,v,1,0.4424281,None,,sushreesanjana,1,2023-10-16_14h51.24.232,sequential learning,2023.1.3,59.95153518,,,,,,,
50,c,0,0,0,0,,,,,0,2,2,2,511.0603842,512.0601519,512.0601519,512.0601519,512.0601519,512.0601519,513.059825,513.059825,c,1,0.5354029,None,,sushreesanjana,1,2023-10-16_14h51.24.232,sequential learning,2023.1.3,59.95153518,,,,,,,
-150,z,0,0,0,0,,,,,0,3,3,3,513.6260119,514.6264956,514.6264956,514.6264956,514.6264956,514.6264956,515.625846,515.625846,z,1,0.2918907,None,,sushreesanjana,1,2023-10-16_14h51.24.232,sequential learning,2023.1.3,59.95153518,,,,,,,
-50,x,0,0,0,0,,,,,1,0,4,0,515.9427722,516.9428102,516.9428102,516.9428102,516.9428102,516.9428102,517.9425963,517.9425963,x,1,0.2610721,None,,sushreesanjana,1,2023-10-16_14h51.24.232,sequential learning,2023.1.3,59.95153518,,,,,,,
150,v,0,0,0,0,,,,,1,1,5,1,518.2256902,519.2256354,519.2256354,519.2256354,519.2256354,519.2256354,520.2252088,520.2252088,v,1,0.2413126,None,,sushreesanjana,1,2023-10-16_14h51.24.232,sequential learning,2023.1.3,59.95153518,,,,,,,
-150,z,0,0,0,0,,,,,1,3,7,3,522.5921637,523.5920522,523.5920522,523.5920522,523.5920522,523.5920522,524.5918878,524.5918878,z,1,0.2866665,None,,sushreesanjana,1,2023-10-16_14h51.24.232,sequential learning,2023.1.3,59.95153518,,,,,,,
-50,x,0,0,0,0,,,,,2,0,8,0,524.9081215,525.9082948,525.9082948,525.9082948,525.9082948,525.9082948,526.9076569,526.9076569,x,1,0.294123,None,,sushreesanjana,1,2023-10-16_14h51.24.232,sequential learning,2023.1.3,59.95153518,,,,,,,
150,v,0,0,0,0,,,,,2,1,9,1,527.2244209,528.2078303,528.2078303,528.2078303,528.2078303,528.2248045,529.2246161,529.2246161,v,1,0.3024086,None,,sushreesanjana,1,2023-10-16_14h51.24.232,sequential learning,2023.1.3,59.95153518,,,,,,,
50,c,0,0,0,0,,,,,2,2,10,2,529.5579381,530.5575239,530.5575239,530.5575239,530.5575239,530.5575239,531.5574126,531.5574126,c,1,0.2505342,None,,sushreesanjana,1,2023-10-16_14h51.24.232,sequential learning,2023.1.3,59.95153518,,,,,,,
-150,z,0,0,0,0,,,,,2,3,11,3,531.8406594,532.8408036,532.8408036,532.8408036,532.8408036,532.8408036,533.8404901,533.8404901,z,1,0.2838181,None,,sushreesanjana,1,2023-10-16_14h51.24.232,sequential learning,2023.1.3,59.95153518,,,,,,,
-50,x,0,0,0,0,,,,,3,0,12,0,534.1407542,535.1406214,535.1406214,535.1406214,535.1406214,535.1406214,536.1402769,536.1402769,x,1,0.2893744,None,,sushreesanjana,1,2023-10-16_14h51.24.232,sequential learning,2023.1.3,59.95153518,,,,,,,
150,v,0,0,0,0,,,,,3,1,13,1,536.4570662,537.4568652,537.4568652,537.4568652,537.4568652,537.4568652,538.4564555,538.4564555,v,1,0.5826199,None,,sushreesanjana,1,2023-10-16_14h51.24.232,sequential learning,2023.1.3,59.95153518,,,,,,,
50,c,0,0,0,0,,,,,3,2,14,2,539.0561505,540.0563904,540.0563904,540.0563904,540.0563904,540.0563904,541.0563442,541.0563442,c,1,0.2863591,None,,sushreesanjana,1,2023-10-16_14h51.24.232,sequential learning,2023.1.3,59.95153518,,,,,,,
-150,z,0,0,0,0,,,,,3,3,15,3,541.3728848,542.372745,542.372745,542.372745,542.372745,542.372745,543.3724895,543.3724895,z,1,0.2470604,None,,sushreesanjana,1,2023-10-16_14h51.24.232,sequential learning,2023.1.3,59.95153518,,,,,,,
-50,x,0,0,0,0,,,,,4,0,16,0,543.6391221,544.6391641,544.6391641,544.6391641,544.6391641,544.6391641,545.6389038,545.6389038,x,1,0.2536655,None,,sushreesanjana,1,2023-10-16_14h51.24.232,sequential learning,2023.1.3,59.95153518,,,,,,,
150,v,0,0,0,0,,,,,4,1,17,1,545.9223425,546.9221582,546.9221582,546.9221582,546.9221582,546.9221582,547.9222485,547.9222485,v,1,0.1423971,None,,sushreesanjana,1,2023-10-16_14h51.24.232,sequential learning,2023.1.3,59.95153518,,,,,,,
50,c,0,0,0,0,,,,,4,2,18,2,548.0884946,549.0888333,549.0888333,549.0888333,549.0888333,549.0888333,550.0883939,550.0883939,c,1,0.3123334,None,,sushreesanjana,1,2023-10-16_14h51.24.232,sequential learning,2023.1.3,59.95153518,,,,,,,
-150,z,0,0,0,0,,,,,4,3,19,3,550.4218429,551.4216614,551.4216614,551.4216614,551.4216614,551.4216614,552.4214055,552.4214055,z,1,0.2377902,None,,sushreesanjana,1,2023-10-16_14h51.24.232,sequential learning,2023.1.3,59.95153518,,,,,,,
-50,x,0,0,0,0,,,,,5,0,20,0,552.6881778,553.6879743,553.6879743,553.6879743,553.6879743,553.6879743,554.6880127,554.6880127,x,1,0.2865102,None,,sushreesanjana,1,2023-10-16_14h51.24.232,sequential learning,2023.1.3,59.95153518,,,,,,,
150,v,0,0,0,0,,,,,5,1,21,1,555.0046909,556.0043285,556.0043285,556.0043285,556.0043285,556.0043285,557.0040524,557.0040524,v,1,0.2793563,None,,sushreesanjana,1,2023-10-16_14h51.24.232,sequential learning,2023.1.3,59.95153518,,,,,,,
50,c,0,0,0,0,,,,,5,2,22,2,557.3038059,558.3040554,558.3040554,558.3040554,558.3040554,558.3040554,559.3040709,559.3040709,c,1,0.401589,None,,sushreesanjana,1,2023-10-16_14h51.24.232,sequential learning,2023.1.3,59.95153518,,,,,,,
-150,z,0,0,0,0,,,,,5,3,23,3,559.7372014,560.7372216,560.7372216,560.7372216,560.7372216,560.7372216,561.7371505,561.7371505,z,1,0.2559497,None,,sushreesanjana,1,2023-10-16_14h51.24.232,sequential learning,2023.1.3,59.95153518,,,,,,,
-50,x,0,0,0,0,,,,,6,0,24,0,562.0200588,563.0198009,563.0198009,563.0198009,563.0198009,563.0198009,564.0199134,564.0199134,x,1,0.3394705,None,,sushreesanjana,1,2023-10-16_14h51.24.232,sequential learning,2023.1.3,59.95153518,,,,,,,
150,v,0,0,0,0,,,,,6,1,25,1,564.3868014,565.3866331,565.3866331,565.3866331,565.3866331,565.3866331,566.3862668,566.3862668,v,1,0.3216575,None,,sushreesanjana,1,2023-10-16_14h51.24.232,sequential learning,2023.1.3,59.95153518,,,,,,,
50,c,0,0,0,0,,,,,6,2,26,2,566.7365351,567.7362323,567.7362323,567.7362323,567.7362323,567.7362323,568.7360565,568.7360565,c,1,0.3475908,None,,sushreesanjana,1,2023-10-16_14h51.24.232,sequential learning,2023.1.3,59.95153518,,,,,,,
-150,z,0,0,0,0,,,,,6,3,27,3,569.1029041,570.1024654,570.1024654,570.1024654,570.1024654,570.1024654,571.1023341,571.1023341,z,1,0.243517,None,,sushreesanjana,1,2023-10-16_14h51.24.232,sequential learning,2023.1.3,59.95153518,,,,,,,
-50,x,0,0,0,0,,,,,7,0,28,0,571.3690882,572.3688701,572.3688701,572.3688701,572.3688701,572.3688701,573.3685995,573.3685995,x,1,0.2858087,None,,sushreesanjana,1,2023-10-16_14h51.24.232,sequential learning,2023.1.3,59.95153518,,,,,,,
150,v,0,0,0,0,,,,,7,1,29,1,573.6850832,574.6854698,574.6854698,574.6854698,574.6854698,574.6854698,575.6853384,575.6853384,v,1,0.3162461,None,,sushreesanjana,1,2023-10-16_14h51.24.232,sequential learning,2023.1.3,59.95153518,,,,,,,
50,c,0,0,0,0,,,,,7,2,30,2,576.0180903,577.0182556,577.0182556,577.0182556,577.0182556,577.0182556,578.0179931,578.0179931,c,1,0.0515761,None,,sushreesanjana,1,2023-10-16_14h51.24.232,sequential learning,2023.1.3,59.95153518,,,,,,,
-150,z,0,0,0,0,,,,,7,3,31,3,578.1013483,579.1014343,579.1014343,579.1014343,579.1014343,579.1014343,580.1013739,580.1013739,z,1,0.2829742,None,,sushreesanjana,1,2023-10-16_14h51.24.232,sequential learning,2023.1.3,59.95153518,,,,,,,
-50,x,0,0,0,0,,,,,8,0,32,0,580.4011602,581.4011145,581.4011145,581.4011145,581.4011145,581.4011145,582.4010778,582.4010778,x,1,0.809671,None,,sushreesanjana,1,2023-10-16_14h51.24.232,sequential learning,2023.1.3,59.95153518,,,,,,,
150,v,0,0,0,0,,,,,8,1,33,1,583.2342844,584.2339812,584.2339812,584.2339812,584.2339812,584.2339812,585.2341146,585.2341146,v,1,0.2626772,None,,sushreesanjana,1,2023-10-16_14h51.24.232,sequential learning,2023.1.3,59.95153518,,,,,,,
50,c,0,0,0,0,,,,,8,2,34,2,585.5168877,586.5169954,586.5169954,586.5169954,586.5169954,586.5169954,587.5168246,587.5168246,c,1,0.3084273,None,,sushreesanjana,1,2023-10-16_14h51.24.232,sequential learning,2023.1.3,59.95153518,,,,,,,
-150,z,0,0,0,0,,,,,8,3,35,3,587.8501786,588.8500294,588.8500294,588.8500294,588.8500294,588.8500294,589.8500203,589.8500203,z,1,0.1053045,None,,sushreesanjana,1,2023-10-16_14h51.24.232,sequential learning,2023.1.3,59.95153518,,,,,,,
-50,x,0,0,0,0,,,,,9,0,36,0,589.9835117,590.983234,590.983234,590.983234,590.983234,590.983234,591.9830279,591.9830279,x,1,0.2442012,None,,sushreesanjana,1,2023-10-16_14h51.24.232,sequential learning,2023.1.3,59.95153518,,,,,,,
150,v,0,0,0,0,,,,,9,1,37,1,592.2499949,593.24952,593.24952,593.24952,593.24952,593.24952,594.2494255,594.2494255,v,1,0.2093998,None,,sushreesanjana,1,2023-10-16_14h51.24.232,sequential learning,2023.1.3,59.95153518,,,,,,,
50,c,0,0,0,0,,,,,9,2,38,2,594.4824276,595.4827558,595.4827558,595.4827558,595.4827558,595.4827558,596.4825021,596.4825021,c,1,0.3299132,None,,sushreesanjana,1,2023-10-16_14h51.24.232,sequential learning,2023.1.3,59.95153518,,,,,,,
-150,z,0,0,0,0,,,,,9,3,39,3,596.8320448,597.8157611,597.8157611,597.8157611,597.8157611,597.8324093,598.815611,598.815611,z,1,0.3269554,None,,sushreesanjana,1,2023-10-16_14h51.24.232,sequential learning,2023.1.3,59.95153518,,,,,,,
-50,x,0,0,0,0,,,,,10,0,40,0,599.165371,600.1654324,600.1654324,600.1654324,600.1654324,600.1654324,601.1651343,601.1651343,x,1,1.0811995,None,602.1648821,sushreesanjana,1,2023-10-16_14h51.24.232,sequential learning,2023.1.3,59.95153518,,,,,,,
150,v,0,0,0,0,,,,,10,1,41,1,602.2648333,603.2648034,603.2648034,603.2648034,603.2648034,603.2648034,604.2643839,604.2643839,v,1,0.4054157,None,,sushreesanjana,1,2023-10-16_14h51.24.232,sequential learning,2023.1.3,59.95153518,,,,,,,
50,c,0,0,0,0,,,,,10,2,42,2,604.6979656,605.6980762,605.6980762,605.6980762,605.6980762,605.6980762,606.6980595,606.6980595,c,1,0.4170643,None,,sushreesanjana,1,2023-10-16_14h51.24.232,sequential learning,2023.1.3,59.95153518,,,,,,,
-150,z,0,0,0,0,,,,,10,3,43,3,607.1477841,608.1476813,608.1476813,608.1476813,608.1476813,608.1476813,609.1478371,609.1478371,z,1,0.3051278,None,,sushreesanjana,1,2023-10-16_14h51.24.232,sequential learning,2023.1.3,59.95153518,,,,,,,
-50,x,0,0,0,0,,,,,11,0,44,0,609.4809344,610.4808343,610.4808343,610.4808343,610.4808343,610.4808343,611.4805742,611.4805742,x,1,0.3869283,None,,sushreesanjana,1,2023-10-16_14h51.24.232,sequential learning,2023.1.3,59.95153518,,,,,,,
150,v,0,0,0,0,,,,,11,1,45,1,611.8970998,612.8971118,612.8971118,612.8971118,612.8971118,612.8971118,613.8970264,613.8970264,v,1,0.3286621,None,,sushreesanjana,1,2023-10-16_14h51.24.232,sequential learning,2023.1.3,59.95153518,,,,,,,
50,c,0,0,0,0,,,,,11,2,46,2,614.2468417,615.2465483,615.2465483,615.2465483,615.2465483,615.2465483,616.2466186,616.2466186,c,1,0.3138693,None,,sushreesanjana,1,2023-10-16_14h51.24.232,sequential learning,2023.1.3,59.95153518,,,,,,,
-150,z,0,0,0,0,,,,,11,3,47,3,616.579889,617.5798868,617.5798868,617.5798868,617.5798868,617.5798868,618.5798273,618.5798273,z,1,0.2351182,None,,sushreesanjana,1,2023-10-16_14h51.24.232,sequential learning,2023.1.3,59.95153518,,,,,,,
-50,x,0,0,0,0,,,,,12,0,48,0,618.8463887,619.8463468,619.8463468,619.8463468,619.8463468,619.8463468,620.8457966,620.8457966,x,1,0.3903669,None,,sushreesanjana,1,2023-10-16_14h51.24.232,sequential learning,2023.1.3,59.95153518,,,,,,,
150,v,0,0,0,0,,,,,12,1,49,1,621.26236,622.2624805,622.2624805,622.2624805,622.2624805,622.2624805,623.2624783,623.2624783,v,1,0.4430367,None,,sushreesanjana,1,2023-10-16_14h51.24.232,sequential learning,2023.1.3,59.95153518,,,,,,,
50,c,0,0,0,0,,,,,12,2,50,2,623.7295007,624.7288204,624.7288204,624.7288204,624.7288204,624.7455099,625.7286418,625.7286418,c,1,0.2823733,None,,sushreesanjana,1,2023-10-16_14h51.24.232,sequential learning,2023.1.3,59.95153518,,,,,,,
-150,z,0,0,0,0,,,,,12,3,51,3,626.0286301,627.0286119,627.0286119,627.0286119,627.0286119,627.0286119,628.028557,628.028557,z,1,0.2856039,None,,sushreesanjana,1,2023-10-16_14h51.24.232,sequential learning,2023.1.3,59.95153518,,,,,,,
-50,x,0,0,0,0,,,,,13,0,52,0,628.3452227,629.3448308,629.3448308,629.3448308,629.3448308,629.3448308,630.3448005,630.3448005,x,1,0.3917058,None,,sushreesanjana,1,2023-10-16_14h51.24.232,sequential learning,2023.1.3,59.95153518,,,,,,,
150,v,0,0,0,0,,,,,13,1,53,1,630.7613334,631.7612472,631.7612472,631.7612472,631.7612472,631.7612472,632.7611916,632.7611916,v,1,0.2990191,None,,sushreesanjana,1,2023-10-16_14h51.24.232,sequential learning,2023.1.3,59.95153518,,,,,,,
50,c,0,0,0,0,,,,,13,2,54,2,633.0778491,634.0777891,634.0777891,634.0777891,634.0777891,634.0777891,635.0777407,635.0777407,c,1,0.3778435,None,,sushreesanjana,1,2023-10-16_14h51.24.232,sequential learning,2023.1.3,59.95153518,,,,,,,
-150,z,0,0,0,0,,,,,13,3,55,3,635.4774654,636.4774939,636.4774939,636.4774939,636.4774939,636.4774939,637.4773424,637.4773424,z,1,0.3087522,None,,sushreesanjana,1,2023-10-16_14h51.24.232,sequential learning,2023.1.3,59.95153518,,,,,,,
-50,x,0,0,0,0,,,,,14,0,56,0,637.8103987,638.8102822,638.8102822,638.8102822,638.8102822,638.8102822,639.8098985,639.8098985,x,1,0.3955439,None,,sushreesanjana,1,2023-10-16_14h51.24.232,sequential learning,2023.1.3,59.95153518,,,,,,,
150,v,0,0,0,0,,,,,14,1,57,1,640.2264745,641.209801,641.209801,641.209801,641.209801,641.2267369,642.2267637,642.2267637,v,1,0.405332,None,,sushreesanjana,1,2023-10-16_14h51.24.232,sequential learning,2023.1.3,59.95153518,,,,,,,
50,c,0,0,0,0,,,,,14,2,58,2,642.6596641,643.6596361,643.6596361,643.6596361,643.6596361,643.6596361,644.6597758,644.6597758,c,1,0.3368892,None,,sushreesanjana,1,2023-10-16_14h51.24.232,sequential learning,2023.1.3,59.95153518,,,,,,,
-150,z,0,0,0,0,,,,,14,3,59,3,645.0263921,646.0260853,646.0260853,646.0260853,646.0260853,646.0260853,647.0258858,647.0258858,z,1,0.2749572,None,,sushreesanjana,1,2023-10-16_14h51.24.232,sequential learning,2023.1.3,59.95153518,,,,,,,
-50,x,0,0,0,0,,,,,15,0,60,0,647.3259375,648.3256184,648.3256184,648.3256184,648.3256184,648.3256184,649.3258294,649.3258294,x,1,0.4678194,None,,sushreesanjana,1,2023-10-16_14h51.24.232,sequential learning,2023.1.3,59.95153518,,,,,,,
150,v,0,0,0,0,,,,,15,1,61,1,649.8253795,650.8255059,650.8255059,650.8255059,650.8255059,650.8255059,651.8255531,651.8255531,v,1,0.2731548,None,,sushreesanjana,1,2023-10-16_14h51.24.232,sequential learning,2023.1.3,59.95153518,,,,,,,
50,c,0,0,0,0,,,,,15,2,62,2,652.1253081,653.1251697,653.1251697,653.1251697,653.1251697,653.1251697,654.1250867,654.1250867,c,1,0.274042,None,,sushreesanjana,1,2023-10-16_14h51.24.232,sequential learning,2023.1.3,59.95153518,,,,,,,
-150,z,0,0,0,0,,,,,15,3,63,3,654.4251455,655.4246505,655.4246505,655.4246505,655.4246505,655.4246505,656.4249417,656.4249417,z,1,0.3538518,None,,sushreesanjana,1,2023-10-16_14h51.24.232,sequential learning,2023.1.3,59.95153518,,,,,,,
-50,x,0,0,0,0,,,,,16,0,64,0,656.8076987,657.8077333,657.8077333,657.8077333,657.8077333,657.8077333,658.8075453,658.8075453,x,1,0.5234261,None,,sushreesanjana,1,2023-10-16_14h51.24.232,sequential learning,2023.1.3,59.95153518,,,,,,,
150,v,0,0,0,0,,,,,16,1,65,1,659.3574993,660.3574801,660.3574801,660.3574801,660.3574801,660.3574801,661.3571417,661.3571417,v,1,0.3191401,None,,sushreesanjana,1,2023-10-16_14h51.24.232,sequential learning,2023.1.3,59.95153518,,,,,,,
50,c,0,0,0,0,,,,,16,2,66,2,661.7073239,662.7073438,662.7073438,662.7073438,662.7073438,662.7073438,663.7071053,663.7071053,c,1,0.4512973,None,,sushreesanjana,1,2023-10-16_14h51.24.232,sequential learning,2023.1.3,59.95153518,,,,,,,
-150,z,0,0,0,0,,,,,16,3,67,3,664.1900565,665.190288,665.190288,665.190288,665.190288,665.190288,666.1902372,666.1902372,z,1,0.206572,None,,sushreesanjana,1,2023-10-16_14h51.24.232,sequential learning,2023.1.3,59.95153518,,,,,,,
-50,x,0,0,0,0,,,,,17,0,68,0,666.4235868,667.4234905,667.4234905,667.4234905,667.4234905,667.4234905,668.4232471,668.4232471,x,1,0.4398139,None,,sushreesanjana,1,2023-10-16_14h51.24.232,sequential learning,2023.1.3,59.95153518,,,,,,,
150,v,0,0,0,0,,,,,17,1,69,1,668.8898981,669.8896779,669.8896779,669.8896779,669.8896779,669.8896779,670.8895312,670.8895312,v,1,0.4108253,None,,sushreesanjana,1,2023-10-16_14h51.24.232,sequential learning,2023.1.3,59.95153518,,,,,,,
50,c,0,0,0,0,,,,,17,2,70,2,671.322699,672.3229955,672.3229955,672.3229955,672.3229955,672.3229955,673.322554,673.322554,c,1,0.5029481,None,,sushreesanjana,1,2023-10-16_14h51.24.232,sequential learning,2023.1.3,59.95153518,,,,,,,
-150,z,0,0,0,0,,,,,17,3,71,3,673.8557472,674.8557209,674.8557209,674.8557209,674.8557209,674.8557209,675.8552379,675.8552379,z,1,0.3668011,None,,sushreesanjana,1,2023-10-16_14h51.24.232,sequential learning,2023.1.3,59.95153518,,,,,,,
-50,x,0,0,0,0,,,,,18,0,72,0,676.2387213,677.2388751,677.2388751,677.2388751,677.2388751,677.2388751,678.238549,678.238549,x,1,1.3249369,None,679.2380279,sushreesanjana,1,2023-10-16_14h51.24.232,sequential learning,2023.1.3,59.95153518,,,,,,,
150,v,0,0,0,0,,,,,18,1,73,1,679.5883402,680.5884501,680.5884501,680.5884501,680.5884501,680.5884501,681.5879148,681.5879148,v,1,1.0223292,None,682.5881761,sushreesanjana,1,2023-10-16_14h51.24.232,sequential learning,2023.1.3,59.95153518,,,,,,,
50,c,0,0,0,0,,,,,18,2,74,2,682.6383264,683.638174,683.638174,683.638174,683.638174,683.638174,684.6376844,684.6376844,c,1,0.538742,None,,sushreesanjana,1,2023-10-16_14h51.24.232,sequential learning,2023.1.3,59.95153518,,,,,,,
-150,z,0,0,0,0,,,,,18,3,75,3,685.204286,686.2043387,686.2043387,686.2043387,686.2043387,686.2043387,687.2042144,687.2042144,z,1,0.7103513,None,,sushreesanjana,1,2023-10-16_14h51.24.232,sequential learning,2023.1.3,59.95153518,,,,,,,
-50,x,0,0,0,0,,,,,19,0,76,0,687.9375168,688.9374103,688.9374103,688.9374103,688.9374103,688.9374103,689.9371469,689.9371469,x,1,0.8039839,None,,sushreesanjana,1,2023-10-16_14h51.24.232,sequential learning,2023.1.3,59.95153518,,,,,,,
150,v,0,0,0,0,,,,,19,1,77,1,690.7704659,691.7703969,691.7703969,691.7703969,691.7703969,691.7703969,692.7699045,692.7699045,v,1,0.7257396,None,,sushreesanjana,1,2023-10-16_14h51.24.232,sequential learning,2023.1.3,59.95153518,,,,,,,
50,c,0,0,0,0,,,,,19,2,78,2,693.5198767,694.519854,694.519854,694.519854,694.519854,694.519854,695.519537,695.519537,c,1,0.4537581,None,,sushreesanjana,1,2023-10-16_14h51.24.232,sequential learning,2023.1.3,59.95153518,,,,,,,
-150,z,0,0,0,0,,,,,19,3,79,3,696.0030315,697.0029308,697.0029308,697.0029308,697.0029308,697.0029308,698.0026573,698.0026573,z,1,0.2669311,None,,sushreesanjana,1,2023-10-16_14h51.24.232,sequential learning,2023.1.3,59.95153518,,,,,,,
-50,x,0,0,0,0,,,,,20,0,80,0,698.2861355,699.2860386,699.2860386,699.2860386,699.2860386,699.2860386,700.2857686,700.2857686,x,1,0.2971655,None,,sushreesanjana,1,2023-10-16_14h51.24.232,sequential learning,2023.1.3,59.95153518,,,,,,,
150,v,0,0,0,0,,,,,20,1,81,1,700.6021858,701.6020626,701.6020626,701.6020626,701.6020626,701.6020626,702.6019231,702.6019231,v,1,0.2525241,None,,sushreesanjana,1,2023-10-16_14h51.24.232,sequential learning,2023.1.3,59.95153518,,,,,,,
50,c,0,0,0,0,,,,,20,2,82,2,702.8849825,703.8685284,703.8685284,703.8685284,703.8685284,703.8852859,704.8684905,704.8684905,c,1,0.2658193,None,,sushreesanjana,1,2023-10-16_14h51.24.232,sequential learning,2023.1.3,59.95153518,,,,,,,
-150,z,0,0,0,0,,,,,20,3,83,3,705.1517094,706.1513664,706.1513664,706.1513664,706.1513664,706.1513664,707.1516227,707.1516227,z,1,0.3753006,None,,sushreesanjana,1,2023-10-16_14h51.24.232,sequential learning,2023.1.3,59.95153518,,,,,,,
-50,x,0,0,0,0,,,,,21,0,84,0,707.5512682,708.5511457,708.5511457,708.5511457,708.5511457,708.5511457,709.5512693,709.5512693,x,1,0.6734758,None,,sushreesanjana,1,2023-10-16_14h51.24.232,sequential learning,2023.1.3,59.95153518,,,,,,,
150,v,0,0,0,0,,,,,21,1,85,1,710.2512646,711.2507233,711.2507233,711.2507233,711.2507233,711.2507233,712.2507843,712.2507843,v,1,0.4193865,None,,sushreesanjana,1,2023-10-16_14h51.24.232,sequential learning,2023.1.3,59.95153518,,,,,,,
50,c,0,0,0,0,,,,,21,2,86,2,712.7008103,713.7006888,713.7006888,713.7006888,713.7006888,713.7006888,714.7002823,714.7002823,c,1,0.3309884,None,,sushreesanjana,1,2023-10-16_14h51.24.232,sequential learning,2023.1.3,59.95153518,,,,,,,
-150,z,0,0,0,0,,,,,21,3,87,3,715.0503197,716.0503838,716.0503838,716.0503838,716.0503838,716.0503838,717.0502491,717.0502491,z,1,0.3724733,None,,sushreesanjana,1,2023-10-16_14h51.24.232,sequential learning,2023.1.3,59.95153518,,,,,,,
-50,x,0,0,0,0,,,,,22,0,88,0,717.4499918,718.4499248,718.4499248,718.4499248,718.4499248,718.4499248,719.4498067,719.4498067,x,1,0.4544609,None,,sushreesanjana,1,2023-10-16_14h51.24.232,sequential learning,2023.1.3,59.95153518,,,,,,,
150,v,0,0,0,0,,,,,22,1,89,1,719.9332263,720.9329509,720.9329509,720.9329509,720.9329509,720.9329509,721.933108,721.933108,v,1,0.3810922,None,,sushreesanjana,1,2023-10-16_14h51.24.232,sequential learning,2023.1.3,59.95153518,,,,,,,
50,c,0,0,0,0,,,,,22,2,90,2,722.3330149,723.3329825,723.3329825,723.3329825,723.3329825,723.3329825,724.3324794,724.3324794,c,1,0.4746789,None,,sushreesanjana,1,2023-10-16_14h51.24.232,sequential learning,2023.1.3,59.95153518,,,,,,,
-150,z,0,0,0,0,,,,,22,3,91,3,724.8325103,725.8324686,725.8324686,725.8324686,725.8324686,725.8324686,726.8322539,726.8322539,z,1,0.3055214,None,,sushreesanjana,1,2023-10-16_14h51.24.232,sequential learning,2023.1.3,59.95153518,,,,,,,
150,v,0,0,0,0,,,,,23,1,93,1,729.5484712,730.548333,730.548333,730.548333,730.548333,730.548333,731.5484545,731.5484545,v,1,0.2728702,None,,sushreesanjana,1,2023-10-16_14h51.24.232,sequential learning,2023.1.3,59.95153518,,,,,,,
50,c,0,0,0,0,,,,,23,2,94,2,731.8484041,732.8483068,732.8483068,732.8483068,732.8483068,732.8483068,733.8480267,733.8480267,c,1,0.2615603,None,,sushreesanjana,1,2023-10-16_14h51.24.232,sequential learning,2023.1.3,59.95153518,,,,,,,
-150,z,0,0,0,0,,,,,23,3,95,3,734.1314949,735.1313281,735.1313281,735.1313281,735.1313281,735.1313281,736.1311024,736.1311024,z,1,0.2079864,None,,sushreesanjana,1,2023-10-16_14h51.24.232,sequential learning,2023.1.3,59.95153518,,,,,,,
-50,x,0,0,0,0,,,,,24,0,96,0,736.3643029,737.3643879,737.3643879,737.3643879,737.3643879,737.3643879,738.3639268,738.3639268,x,1,0.2322857,None,,sushreesanjana,1,2023-10-16_14h51.24.232,sequential learning,2023.1.3,59.95153518,,,,,,,
150,v,0,0,0,0,,,,,24,1,97,1,738.6142255,739.6136078,739.6136078,739.6136078,739.6136078,739.6136078,740.6139028,740.6139028,v,1,0.2389705,None,,sushreesanjana,1,2023-10-16_14h51.24.232,sequential learning,2023.1.3,59.95153518,,,,,,,
50,c,0,0,0,0,,,,,24,2,98,2,740.8808151,741.8806589,741.8806589,741.8806589,741.8806589,741.8806589,742.8803324,742.8803324,c,1,0.2855807,None,,sushreesanjana,1,2023-10-16_14h51.24.232,sequential learning,2023.1.3,59.95153518,,,,,,,
-150,z,0,0,0,0,,,,,24,3,99,3,743.1967412,744.1968669,744.1968669,744.1968669,744.1968669,744.1968669,745.1964804,745.1964804,z,1,0.0112885,None,,sushreesanjana,1,2023-10-16_14h51.24.232,sequential learning,2023.1.3,59.95153518,,,,,,,
-50,x,0,0,0,0,,,,,25,0,100,0,745.2298508,746.229833,746.229833,746.229833,746.229833,746.229833,747.2297058,747.2297058,x,1,0.1999899,None,,sushreesanjana,1,2023-10-16_14h51.24.232,sequential learning,2023.1.3,59.95153518,,,,,,,
150,v,0,0,0,0,,,,,25,1,101,1,747.4461169,748.4463085,748.4463085,748.4463085,748.4463085,748.4463085,749.4461123,749.4461123,v,1,0.5076996,None,,sushreesanjana,1,2023-10-16_14h51.24.232,sequential learning,2023.1.3,59.95153518,,,,,,,
50,c,0,0,0,0,,,,,25,2,102,2,749.9793518,750.9793888,750.9793888,750.9793888,750.9793888,750.9793888,751.9788615,751.9788615,c,1,0.2557137,None,,sushreesanjana,1,2023-10-16_14h51.24.232,sequential learning,2023.1.3,59.95153518,,,,,,,
-150,z,0,0,0,0,,,,,25,3,103,3,752.2621939,753.2622579,753.2622579,753.2622579,753.2622579,753.2622579,754.2621465,754.2621465,z,1,0.2430394,None,,sushreesanjana,1,2023-10-16_14h51.24.232,sequential learning,2023.1.3,59.95153518,,,,,,,
-50,x,0,0,0,0,,,,,26,0,104,0,754.5289153,755.528619,755.528619,755.528619,755.528619,755.528619,756.5285045,756.5285045,x,1,0.4449658,None,,sushreesanjana,1,2023-10-16_14h51.24.232,sequential learning,2023.1.3,59.95153518,,,,,,,
150,v,0,0,0,0,,,,,26,1,105,1,756.9951407,757.9949516,757.9949516,757.9949516,757.9949516,757.9949516,758.9947779,758.9947779,v,1,0.3870711,None,,sushreesanjana,1,2023-10-16_14h51.24.232,sequential learning,2023.1.3,59.95153518,,,,,,,
50,c,0,0,0,0,,,,,26,2,106,2,759.4111824,760.4113146,760.4113146,760.4113146,760.4113146,760.4113146,761.4112039,761.4112039,c,1,0.2583228,None,,sushreesanjana,1,2023-10-16_14h51.24.232,sequential learning,2023.1.3,59.95153518,,,,,,,
-150,z,0,0,0,0,,,,,26,3,107,3,761.6941484,762.6945418,762.6945418,762.6945418,762.6945418,762.6945418,763.6940097,763.6940097,z,1,0.235985,None,,sushreesanjana,1,2023-10-16_14h51.24.232,sequential learning,2023.1.3,59.95153518,,,,,,,
-50,x,0,0,0,0,,,,,27,0,108,0,763.9609034,764.9605627,764.9605627,764.9605627,764.9605627,764.9605627,765.9607321,765.9607321,x,1,0.2864325,None,,sushreesanjana,1,2023-10-16_14h51.24.232,sequential learning,2023.1.3,59.95153518,,,,,,,
150,v,0,0,0,0,,,,,27,1,109,1,766.2773048,767.2773322,767.2773322,767.2773322,767.2773322,767.2773322,768.2767918,768.2767918,v,1,0.0230476,None,,sushreesanjana,1,2023-10-16_14h51.24.232,sequential learning,2023.1.3,59.95153518,,,,,,,
50,c,0,0,0,0,,,,,27,2,110,2,768.3270524,769.3268765,769.3268765,769.3268765,769.3268765,769.3268765,770.3266003,770.3266003,c,1,0.2467149,None,,sushreesanjana,1,2023-10-16_14h51.24.232,sequential learning,2023.1.3,59.95153518,,,,,,,
-150,z,0,0,0,0,,,,,27,3,111,3,770.5933064,771.5930578,771.5930578,771.5930578,771.5930578,771.5930578,772.5927517,772.5927517,z,1,0.1993263,None,,sushreesanjana,1,2023-10-16_14h51.24.232,sequential learning,2023.1.3,59.95153518,,,,,,,
-50,x,0,0,0,0,,,,,28,0,112,0,772.809713,773.809394,773.809394,773.809394,773.809394,773.809394,774.8096217,774.8096217,x,1,0.2767592,None,,sushreesanjana,1,2023-10-16_14h51.24.232,sequential learning,2023.1.3,59.95153518,,,,,,,
150,v,0,0,0,0,,,,,28,1,113,1,775.1093771,776.1091959,776.1091959,776.1091959,776.1091959,776.1091959,777.1090985,777.1090985,v,1,0.2467016,None,,sushreesanjana,1,2023-10-16_14h51.24.232,sequential learning,2023.1.3,59.95153518,,,,,,,
50,c,0,0,0,0,,,,,28,2,114,2,777.3756803,778.3755034,778.3755034,778.3755034,778.3755034,778.3755034,779.3757318,779.3757318,c,1,0.2869889,None,,sushreesanjana,1,2023-10-16_14h51.24.232,sequential learning,2023.1.3,59.95153518,,,,,,,
-150,z,0,0,0,0,,,,,28,3,115,3,779.6919811,780.6918173,780.6918173,780.6918173,780.6918173,780.6918173,781.6919037,781.6919037,z,1,0.1385619,None,,sushreesanjana,1,2023-10-16_14h51.24.232,sequential learning,2023.1.3,59.95153518,,,,,,,
-50,x,0,0,0,0,,,,,29,0,116,0,781.8584088,782.8585959,782.8585959,782.8585959,782.8585959,782.8585959,783.8581125,783.8581125,x,1,0.252575,None,,sushreesanjana,1,2023-10-16_14h51.24.232,sequential learning,2023.1.3,59.95153518,,,,,,,
150,v,0,0,0,0,,,,,29,1,117,1,784.141611,785.141242,785.141242,785.141242,785.141242,785.141242,786.1412432,786.1412432,v,1,0.2585379,None,,sushreesanjana,1,2023-10-16_14h51.24.232,sequential learning,2023.1.3,59.95153518,,,,,,,
50,c,0,0,0,0,,,,,29,2,118,2,786.4246109,787.4246045,787.4246045,787.4246045,787.4246045,787.4246045,788.424326,788.424326,c,1,0.2912105,None,,sushreesanjana,1,2023-10-16_14h51.24.232,sequential learning,2023.1.3,59.95153518,,,,,,,
-150,z,0,0,0,0,,,,,29,3,119,3,788.7408941,789.7406305,789.7406305,789.7406305,789.7406305,789.7406305,790.740783,790.740783,z,1,0.2410189,None,,sushreesanjana,1,2023-10-16_14h51.24.232,sequential learning,2023.1.3,59.95153518,,,,,,,
-50,x,0,0,0,0,,,,,30,0,120,0,791.0072224,792.0071337,792.0071337,792.0071337,792.0071337,792.0071337,793.0066816,793.0066816,x,1,0.2409953,None,,sushreesanjana,1,2023-10-16_14h51.24.232,sequential learning,2023.1.3,59.95153518,,,,,,,
150,v,0,0,0,0,,,,,30,1,121,1,793.2735407,794.2739114,794.2739114,794.2739114,794.2739114,794.2739114,795.2735818,795.2735818,v,1,0.278664,None,,sushreesanjana,1,2023-10-16_14h51.24.232,sequential learning,2023.1.3,59.95153518,,,,,,,
50,c,0,0,0,0,,,,,30,2,122,2,795.5732601,796.5734594,796.5734594,796.5734594,796.5734594,796.5734594,797.5733945,797.5733945,c,1,0.2752513,None,,sushreesanjana,1,2023-10-16_14h51.24.232,sequential learning,2023.1.3,59.95153518,,,,,,,
-150,z,0,0,0,0,,,,,30,3,123,3,797.8728898,798.8730566,798.8730566,798.8730566,798.8730566,798.8730566,799.8730051,799.8730051,z,1,0.3195455,None,,sushreesanjana,1,2023-10-16_14h51.24.232,sequential learning,2023.1.3,59.95153518,,,,,,,
-50,x,0,0,0,0,,,,,31,0,124,0,800.2229305,801.222678,801.222678,801.222678,801.222678,801.222678,802.2225711,802.2225711,x,1,0.5659902,None,,sushreesanjana,1,2023-10-16_14h51.24.232,sequential learning,2023.1.3,59.95153518,,,,,,,
150,v,0,0,0,0,,,,,31,1,125,1,802.8059534,803.8057934,803.8057934,803.8057934,803.8057934,803.8057934,804.8057311,804.8057311,v,1,0.4077821,None,,sushreesanjana,1,2023-10-16_14h51.24.232,sequential learning,2023.1.3,59.95153518,,,,,,,
50,c,0,0,0,0,,,,,31,2,126,2,805.2385479,806.2386803,806.2386803,806.2386803,806.2386803,806.2386803,807.2388624,807.2388624,c,1,0.3060668,None,,sushreesanjana,1,2023-10-16_14h51.24.232,sequential learning,2023.1.3,59.95153518,,,,,,,
-150,z,0,0,0,0,,,,,31,3,127,3,807.5717298,808.5717751,808.5717751,808.5717751,808.5717751,808.5717751,809.5717136,809.5717136,z,1,0.4750035,None,,sushreesanjana,1,2023-10-16_14h51.24.232,sequential learning,2023.1.3,59.95153518,,,,,,,
-50,x,0,0,0,0,,,,,32,0,128,0,810.0714211,811.0714336,811.0714336,811.0714336,811.0714336,811.0714336,812.0713516,812.0713516,x,1,0.2806524,None,,sushreesanjana,1,2023-10-16_14h51.24.232,sequential learning,2023.1.3,59.95153518,,,,,,,
150,v,0,0,0,0,,,,,32,1,129,1,812.3714445,813.3711029,813.3711029,813.3711029,813.3711029,813.3711029,814.3711464,814.3711464,v,1,0.2489656,None,,sushreesanjana,1,2023-10-16_14h51.24.232,sequential learning,2023.1.3,59.95153518,,,,,,,
50,c,0,0,0,0,,,,,32,2,130,2,814.6373417,815.6373535,815.6373535,815.6373535,815.6373535,815.6373535,816.637587,816.637587,c,1,0.2903828,None,,sushreesanjana,1,2023-10-16_14h51.24.232,sequential learning,2023.1.3,59.95153518,,,,,,,
-150,z,0,0,0,0,,,,,32,3,131,3,816.9539061,817.9542053,817.9542053,817.9542053,817.9542053,817.9542053,818.9539048,818.9539048,z,1,0.2740986,None,,sushreesanjana,1,2023-10-16_14h51.24.232,sequential learning,2023.1.3,59.95153518,,,,,,,
-50,x,0,0,0,0,,,,,33,0,132,0,819.2536185,820.2538825,820.2538825,820.2538825,820.2538825,820.2538825,821.2534176,821.2534176,x,1,0.3012361,None,,sushreesanjana,1,2023-10-16_14h51.24.232,sequential learning,2023.1.3,59.95153518,,,,,,,
150,v,0,0,0,0,,,,,33,1,133,1,821.5865681,822.5864883,822.5864883,822.5864883,822.5864883,822.5864883,823.5863925,823.5863925,v,1,0.4690353,None,,sushreesanjana,1,2023-10-16_14h51.24.232,sequential learning,2023.1.3,59.95153518,,,,,,,
50,c,0,0,0,0,,,,,33,2,134,2,824.0864811,825.0863795,825.0863795,825.0863795,825.0863795,825.0863795,826.0860214,826.0860214,c,1,0.1228871,None,,sushreesanjana,1,2023-10-16_14h51.24.232,sequential learning,2023.1.3,59.95153518,,,,,,,
-150,z,0,0,0,0,,,,,33,3,135,3,826.236055,827.2359657,827.2359657,827.2359657,827.2359657,827.2359657,828.2356658,828.2356658,z,1,0.3058628,None,,sushreesanjana,1,2023-10-16_14h51.24.232,sequential learning,2023.1.3,59.95153518,,,,,,,
-50,x,0,0,0,0,,,,,34,0,136,0,828.5689984,829.5690272,829.5690272,829.5690272,829.5690272,829.5690272,830.5688459,830.5688459,x,1,0.3191285,None,,sushreesanjana,1,2023-10-16_14h51.24.232,sequential learning,2023.1.3,59.95153518,,,,,,,
150,v,0,0,0,0,,,,,34,1,137,1,830.9186802,831.9188577,831.9188577,831.9188577,831.9188577,831.9188577,832.9186545,832.9186545,v,1,0.2511793,None,,sushreesanjana,1,2023-10-16_14h51.24.232,sequential learning,2023.1.3,59.95153518,,,,,,,
50,c,0,0,0,0,,,,,34,2,138,2,833.201939,834.2016771,834.2016771,834.2016771,834.2016771,834.2016771,835.2015468,835.2015468,c,1,0.2771199,None,,sushreesanjana,1,2023-10-16_14h51.24.232,sequential learning,2023.1.3,59.95153518,,,,,,,
-150,z,0,0,0,0,,,,,34,3,139,3,835.5016989,836.5016004,836.5016004,836.5016004,836.5016004,836.5016004,837.501373,837.501373,z,1,0.2401691,None,,sushreesanjana,1,2023-10-16_14h51.24.232,sequential learning,2023.1.3,59.95153518,,,,,,,
-50,x,0,0,0,0,,,,,35,0,140,0,837.7678929,838.7679912,838.7679912,838.7679912,838.7679912,838.7679912,839.7679214,839.7679214,x,1,0.4736566,None,,sushreesanjana,1,2023-10-16_14h51.24.232,sequential learning,2023.1.3,59.95153518,,,,,,,
150,v,0,0,0,0,,,,,35,1,141,1,840.2675451,841.2675535,841.2675535,841.2675535,841.2675535,841.2675535,842.2673259,842.2673259,v,1,0.1233172,None,,sushreesanjana,1,2023-10-16_14h51.24.232,sequential learning,2023.1.3,59.95153518,,,,,,,
50,c,0,0,0,0,,,,,35,2,142,2,842.4174747,843.4173723,843.4173723,843.4173723,843.4173723,843.4173723,844.4171425,844.4171425,c,1,0.2576908,None,,sushreesanjana,1,2023-10-16_14h51.24.232,sequential learning,2023.1.3,59.95153518,,,,,,,
-150,z,0,0,0,0,,,,,35,3,143,3,844.7004611,845.7003747,845.7003747,845.7003747,845.7003747,845.7003747,846.70012,846.70012,z,1,0.2637803,None,,sushreesanjana,1,2023-10-16_14h51.24.232,sequential learning,2023.1.3,59.95153518,,,,,,,
-50,x,0,0,0,0,,,,,36,0,144,0,846.9835483,847.9834457,847.9834457,847.9834457,847.9834457,847.9834457,848.983082,848.983082,x,1,0.3193832,None,,sushreesanjana,1,2023-10-16_14h51.24.232,sequential learning,2023.1.3,59.95153518,,,,,,,
150,v,0,0,0,0,,,,,36,1,145,1,849.3327524,850.3331568,850.3331568,850.3331568,850.3331568,850.3331568,851.3328165,851.3328165,v,1,0.2328785,None,,sushreesanjana,1,2023-10-16_14h51.24.232,sequential learning,2023.1.3,59.95153518,,,,,,,
50,c,0,0,0,0,,,,,36,2,146,2,851.5827968,852.5824968,852.5824968,852.5824968,852.5824968,852.5824968,853.5820378,853.5820378,c,1,0.2655171,None,,sushreesanjana,1,2023-10-16_14h51.24.232,sequential learning,2023.1.3,59.95153518,,,,,,,
-150,z,0,0,0,0,,,,,36,3,147,3,853.8658407,854.8655027,854.8655027,854.8655027,854.8655027,854.8655027,855.865648,855.865648,z,1,0.1592119,None,,sushreesanjana,1,2023-10-16_14h51.24.232,sequential learning,2023.1.3,59.95153518,,,,,,,
-50,x,0,0,0,0,,,,,37,0,148,0,856.0487465,857.0488094,857.0488094,857.0488094,857.0488094,857.0488094,858.0487983,858.0487983,x,1,0.3960672,None,,sushreesanjana,1,2023-10-16_14h51.24.232,sequential learning,2023.1.3,59.95153518,,,,,,,
150,v,0,0,0,0,,,,,37,1,149,1,858.4651095,859.4652462,859.4652462,859.4652462,859.4652462,859.4652462,860.4651228,860.4651228,v,1,0.2901866,None,,sushreesanjana,1,2023-10-16_14h51.24.232,sequential learning,2023.1.3,59.95153518,,,,,,,
50,c,0,0,0,0,,,,,37,2,150,2,860.7815811,861.7815901,861.7815901,861.7815901,861.7815901,861.7815901,862.7816064,862.7816064,c,1,0.2682069,None,,sushreesanjana,1,2023-10-16_14h51.24.232,sequential learning,2023.1.3,59.95153518,,,,,,,
-150,z,0,0,0,0,,,,,37,3,151,3,863.0812336,864.081429,864.081429,864.081429,864.081429,864.081429,865.0811897,865.0811897,z,1,0.2164199,None,,sushreesanjana,1,2023-10-16_14h51.24.232,sequential learning,2023.1.3,59.95153518,,,,,,,
-50,x,0,0,0,0,,,,,38,0,152,0,865.314571,866.3143456,866.3143456,866.3143456,866.3143456,866.3143456,867.3142644,867.3142644,x,1,0.2349807,None,,sushreesanjana,1,2023-10-16_14h51.24.232,sequential learning,2023.1.3,59.95153518,,,,,,,
150,v,0,0,0,0,,,,,38,1,153,1,867.5807795,868.5806361,868.5806361,868.5806361,868.5806361,868.5806361,869.580494,869.580494,v,1,0.228541,None,,sushreesanjana,1,2023-10-16_14h51.24.232,sequential learning,2023.1.3,59.95153518,,,,,,,
50,c,0,0,0,0,,,,,38,2,154,2,869.8302675,870.8304361,870.8304361,870.8304361,870.8304361,870.8304361,871.8301992,871.8301992,c,1,0.2928218,None,,sushreesanjana,1,2023-10-16_14h51.24.232,sequential learning,2023.1.3,59.95153518,,,,,,,
-150,z,0,0,0,0,,,,,38,3,155,3,872.147,873.1469034,873.1469034,873.1469034,873.1469034,873.1469034,874.1465497,874.1465497,z,1,0.3125136,None,,sushreesanjana,1,2023-10-16_14h51.24.232,sequential learning,2023.1.3,59.95153518,,,,,,,
-50,x,0,0,0,0,,,,,39,0,156,0,874.4800193,875.4794126,875.4794126,875.4794126,875.4794126,875.4794126,876.4793678,876.4793678,x,1,0.2348784,None,,sushreesanjana,1,2023-10-16_14h51.24.232,sequential learning,2023.1.3,59.95153518,,,,,,,
150,v,0,0,0,0,,,,,39,1,157,1,876.7463313,877.7463045,877.7463045,877.7463045,877.7463045,877.7463045,878.745962,878.745962,v,1,0.2391537,None,,sushreesanjana,1,2023-10-16_14h51.24.232,sequential learning,2023.1.3,59.95153518,,,,,,,
50,c,0,0,0,0,,,,,39,2,158,2,879.0128776,880.0127347,880.0127347,880.0127347,880.0127347,880.0127347,881.0124664,881.0124664,c,1,0.2886953,None,,sushreesanjana,1,2023-10-16_14h51.24.232,sequential learning,2023.1.3,59.95153518,,,,,,,
-150,z,0,0,0,0,,,,,39,3,159,3,881.329113,882.3286476,882.3286476,882.3286476,882.3286476,882.3286476,883.3291087,883.3291087,z,1,0.2233304,None,,sushreesanjana,1,2023-10-16_14h51.24.232,sequential learning,2023.1.3,59.95153518,,,,,,,
-50,x,0,0,0,0,,,,,40,0,160,0,883.5786265,884.5785706,884.5785706,884.5785706,884.5785706,884.5785706,885.5783188,885.5783188,x,1,0.4182313,None,,sushreesanjana,1,2023-10-16_14h51.24.232,sequential learning,2023.1.3,59.95153518,,,,,,,
150,v,0,0,0,0,,,,,40,1,161,1,886.028291,887.0282774,887.0282774,887.0282774,887.0282774,887.0282774,888.0279116,888.0279116,v,1,0.341822,None,,sushreesanjana,1,2023-10-16_14h51.24.232,sequential learning,2023.1.3,59.95153518,,,,,,,
50,c,0,0,0,0,,,,,40,2,162,2,888.3946148,889.3949855,889.3949855,889.3949855,889.3949855,889.3949855,890.3944903,890.3944903,c,1,0.4337796,None,,sushreesanjana,1,2023-10-16_14h51.24.232,sequential learning,2023.1.3,59.95153518,,,,,,,
-150,z,0,0,0,0,,,,,40,3,163,3,890.8610616,891.8609568,891.8609568,891.8609568,891.8609568,891.8609568,892.860841,892.860841,z,1,0.2683114,None,,sushreesanjana,1,2023-10-16_14h51.24.232,sequential learning,2023.1.3,59.95153518,,,,,,,
-50,x,0,0,0,0,,,,,41,0,164,0,893.16063,894.1609842,894.1609842,894.1609842,894.1609842,894.1609842,895.1605635,895.1605635,x,1,0.2799312,None,,sushreesanjana,1,2023-10-16_14h51.24.232,sequential learning,2023.1.3,59.95153518,,,,,,,
150,v,0,0,0,0,,,,,41,1,165,1,895.4603683,896.460321,896.460321,896.460321,896.460321,896.460321,897.4604335,897.4604335,v,1,0.2431076,None,,sushreesanjana,1,2023-10-16_14h51.24.232,sequential learning,2023.1.3,59.95153518,,,,,,,
50,c,0,0,0,0,,,,,41,2,166,2,897.7269852,898.7267655,898.7267655,898.7267655,898.7267655,898.7267655,899.7264024,899.7264024,c,1,0.2425576,None,,sushreesanjana,1,2023-10-16_14h51.24.232,sequential learning,2023.1.3,59.95153518,,,,,,,
-150,z,0,0,0,0,,,,,41,3,167,3,899.9933658,900.993159,900.993159,900.993159,900.993159,900.993159,901.9929547,901.9929547,z,1,0.3223731,None,,sushreesanjana,1,2023-10-16_14h51.24.232,sequential learning,2023.1.3,59.95153518,,,,,,,
-50,x,0,0,0,0,,,,,42,0,168,0,902.3429629,903.3431608,903.3431608,903.3431608,903.3431608,903.3431608,904.3427614,904.3427614,x,1,0.2722055,None,,sushreesanjana,1,2023-10-16_14h51.24.232,sequential learning,2023.1.3,59.95153518,,,,,,,
150,v,0,0,0,0,,,,,42,1,169,1,904.642636,905.6429067,905.6429067,905.6429067,905.6429067,905.6429067,906.6427119,906.6427119,v,1,0.2518672,None,,sushreesanjana,1,2023-10-16_14h51.24.232,sequential learning,2023.1.3,59.95153518,,,,,,,
50,c,0,0,0,0,,,,,42,2,170,2,906.9255242,907.9256274,907.9256274,907.9256274,907.9256274,907.9256274,908.9254358,908.9254358,c,1,0.2827209,None,,sushreesanjana,1,2023-10-16_14h51.24.232,sequential learning,2023.1.3,59.95153518,,,,,,,
-150,z,0,0,0,0,,,,,42,3,171,3,909.2256734,910.2249972,910.2249972,910.2249972,910.2249972,910.2249972,911.2250518,911.2250518,z,1,0.3933966,None,,sushreesanjana,1,2023-10-16_14h51.24.232,sequential learning,2023.1.3,59.95153518,,,,,,,
-50,x,0,0,0,0,,,,,43,0,172,0,911.6418647,912.6417325,912.6417325,912.6417325,912.6417325,912.6417325,913.6411206,913.6411206,x,1,0.4292315,None,,sushreesanjana,1,2023-10-16_14h51.24.232,sequential learning,2023.1.3,59.95153518,,,,,,,
150,v,0,0,0,0,,,,,43,1,173,1,914.0910698,915.0743558,915.0743558,915.0743558,915.0743558,915.0912016,916.0909169,916.0909169,v,1,0.3711721,None,,sushreesanjana,1,2023-10-16_14h51.24.232,sequential learning,2023.1.3,59.95153518,,,,,,,
50,c,0,0,0,0,,,,,43,2,174,2,916.4907239,917.4909099,917.4909099,917.4909099,917.4909099,917.4909099,918.4909722,918.4909722,c,1,0.4060807,None,,sushreesanjana,1,2023-10-16_14h51.24.232,sequential learning,2023.1.3,59.95153518,,,,,,,
-150,z,0,0,0,0,,,,,43,3,175,3,918.9241773,919.9238079,919.9238079,919.9238079,919.9238079,919.9238079,920.9239049,920.9239049,z,1,0.5552756,None,,sushreesanjana,1,2023-10-16_14h51.24.232,sequential learning,2023.1.3,59.95153518,,,,,,,
-50,x,0,0,0,0,,,,,44,0,176,0,921.5073626,922.5068774,922.5068774,922.5068774,922.5068774,922.5068774,923.5067986,923.5067986,x,1,0.2492702,None,,sushreesanjana,1,2023-10-16_14h51.24.232,sequential learning,2023.1.3,59.95153518,,,,,,,
150,v,0,0,0,0,,,,,44,1,177,1,923.773471,924.7734239,924.7734239,924.7734239,924.7734239,924.7734239,925.7731503,925.7731503,v,1,0.3205509,None,,sushreesanjana,1,2023-10-16_14h51.24.232,sequential learning,2023.1.3,59.95153518,,,,,,,
50,c,0,0,0,0,,,,,44,2,178,2,926.1230587,927.1232952,927.1232952,927.1232952,927.1232952,927.1232952,928.1228931,928.1228931,c,1,0.2496208,None,,sushreesanjana,1,2023-10-16_14h51.24.232,sequential learning,2023.1.3,59.95153518,,,,,,,
-150,z,0,0,0,0,,,,,44,3,179,3,928.3897695,929.3895902,929.3895902,929.3895902,929.3895902,929.3895902,930.3892048,930.3892048,z,1,0.192148,None,,sushreesanjana,1,2023-10-16_14h51.24.232,sequential learning,2023.1.3,59.95153518,,,,,,,
-50,x,0,0,0,0,,,,,45,0,180,0,930.6059805,931.6058823,931.6058823,931.6058823,931.6058823,931.6058823,932.6057731,932.6057731,x,1,0.2528942,None,,sushreesanjana,1,2023-10-16_14h51.24.232,sequential learning,2023.1.3,59.95153518,,,,,,,
150,v,0,0,0,0,,,,,45,1,181,1,932.8891477,933.8886385,933.8886385,933.8886385,933.8886385,933.8886385,934.8887533,934.8887533,v,1,0.2329974,None,,sushreesanjana,1,2023-10-16_14h51.24.232,sequential learning,2023.1.3,59.95153518,,,,,,,
50,c,0,0,0,0,,,,,45,2,182,2,935.1386746,936.1386333,936.1386333,936.1386333,936.1386333,936.1386333,937.1384971,937.1384971,c,1,0.2668352,None,,sushreesanjana,1,2023-10-16_14h51.24.232,sequential learning,2023.1.3,59.95153518,,,,,,,
-150,z,0,0,0,0,,,,,45,3,183,3,937.4215206,938.4214329,938.4214329,938.4214329,938.4214329,938.4214329,939.4216187,939.4216187,z,1,0.2177314,None,,sushreesanjana,1,2023-10-16_14h51.24.232,sequential learning,2023.1.3,59.95153518,,,,,,,
-50,x,0,0,0,0,,,,,46,0,184,0,939.6715589,940.6711609,940.6711609,940.6711609,940.6711609,940.6711609,941.6709507,941.6709507,x,1,0.2957587,None,,sushreesanjana,1,2023-10-16_14h51.24.232,sequential learning,2023.1.3,59.95153518,,,,,,,
150,v,0,0,0,0,,,,,46,1,185,1,941.9877507,942.9881344,942.9881344,942.9881344,942.9881344,942.9881344,943.9875904,943.9875904,v,1,0.2447962,None,,sushreesanjana,1,2023-10-16_14h51.24.232,sequential learning,2023.1.3,59.95153518,,,,,,,
50,c,0,0,0,0,,,,,46,2,186,2,944.2542333,945.2540503,945.2540503,945.2540503,945.2540503,945.2540503,946.2539838,946.2539838,c,1,0.2477358,None,,sushreesanjana,1,2023-10-16_14h51.24.232,sequential learning,2023.1.3,59.95153518,,,,,,,
-150,z,0,0,0,0,,,,,46,3,187,3,946.5205275,947.5203303,947.5203303,947.5203303,947.5203303,947.5203303,948.5198454,948.5198454,z,1,0.2422343,None,,sushreesanjana,1,2023-10-16_14h51.24.232,sequential learning,2023.1.3,59.95153518,,,,,,,
-50,x,0,0,0,0,,,,,47,0,188,0,948.786615,949.7704255,949.7704255,949.7704255,949.7704255,949.7869609,950.7701503,950.7701503,x,1,0.3065043,None,,sushreesanjana,1,2023-10-16_14h51.24.232,sequential learning,2023.1.3,59.95153518,,,,,,,
150,v,0,0,0,0,,,,,47,1,189,1,951.103405,952.1033891,952.1033891,952.1033891,952.1033891,952.1033891,953.10285,953.10285,v,1,0.2728732,None,,sushreesanjana,1,2023-10-16_14h51.24.232,sequential learning,2023.1.3,59.95153518,,,,,,,
50,c,0,0,0,0,,,,,47,2,190,2,953.4027811,954.4029971,954.4029971,954.4029971,954.4029971,954.4029971,955.4031071,955.4031071,c,1,0.3044574,None,,sushreesanjana,1,2023-10-16_14h51.24.232,sequential learning,2023.1.3,59.95153518,,,,,,,
-150,z,0,0,0,0,,,,,47,3,191,3,955.7361071,956.7358644,956.7358644,956.7358644,956.7358644,956.7358644,957.7359946,957.7359946,z,1,0.2937413,None,,sushreesanjana,1,2023-10-16_14h51.24.232,sequential learning,2023.1.3,59.95153518,,,,,,,
-50,x,0,0,0,0,,,,,48,0,192,0,958.0524115,959.0525191,959.0525191,959.0525191,959.0525191,959.0525191,960.0522479,960.0522479,x,1,0.3292035,None,,sushreesanjana,1,2023-10-16_14h51.24.232,sequential learning,2023.1.3,59.95153518,,,,,,,
150,v,0,0,0,0,,,,,48,1,193,1,960.401994,961.4022633,961.4022633,961.4022633,961.4022633,961.4022633,962.4020393,962.4020393,v,1,0.2924198,None,,sushreesanjana,1,2023-10-16_14h51.24.232,sequential learning,2023.1.3,59.95153518,,,,,,,
50,c,0,0,0,0,,,,,48,2,194,2,962.7182841,963.7181138,963.7181138,963.7181138,963.7181138,963.7181138,964.7177315,964.7177315,c,1,0.3718438,None,,sushreesanjana,1,2023-10-16_14h51.24.232,sequential learning,2023.1.3,59.95153518,,,,,,,
-50,x,0,0,0,0,,,,,49,0,196,0,967.484925,968.4844775,968.4844775,968.4844775,968.4844775,968.4844775,969.4841992,969.4841992,x,1,0.3053016,None,,sushreesanjana,1,2023-10-16_14h51.24.232,sequential learning,2023.1.3,59.95153518,,,,,,,
150,v,0,0,0,0,,,,,49,1,197,1,969.8174535,970.8174717,970.8174717,970.8174717,970.8174717,970.8174717,971.8173822,971.8173822,v,1,0.3171532,None,,sushreesanjana,1,2023-10-16_14h51.24.232,sequential learning,2023.1.3,59.95153518,,,,,,,
50,c,0,0,0,0,,,,,49,2,198,2,972.1505012,973.1506025,973.1506025,973.1506025,973.1506025,973.1506025,974.1502748,974.1502748,c,1,0.3803798,None,,sushreesanjana,1,2023-10-16_14h51.24.232,sequential learning,2023.1.3,59.95153518,,,,,,,
-150,z,0,0,0,0,,,,,49,3,199,3,974.5503599,975.5503824,975.5503824,975.5503824,975.5503824,975.5503824,976.550155,976.550155,z,1,0.250034,None,,sushreesanjana,1,2023-10-16_14h51.24.232,sequential learning,2023.1.3,59.95153518,,,,,,,
